Time,Current,Magnetic Field 3,Magnetic Field 1,Magnetic Field 2
0,0,-0.0001,0.0005,-0.001
0.05,-0.006,0.0012,0.0015,-0.0014
0.1,-0.006,-0.0003,0.0003,-0.001
0.15,0,-0.0003,-0.0005,-0.0014
0.2,-0.006,-0.0011,-0.0016,-0.001
0.25,0,0.0003,0.0001,0
0.3,0,0.0005,0.0009,-0.0014
0.35,-0.006,0.0016,-0.0013,0.001
0.4,-0.006,-0.0005,0.0013,0.0006
0.45,-0.006,0.0012,-0.0013,0.0006
0.5,-0.006,0.0011,-0.0001,0.0023
0.55,-0.006,-0.0009,-0.0005,0.0002
0.6,0,-0.0005,0.0003,0.001
0.65,0,-0.0009,-0.0001,0.0002
0.7,-0.006,0.0003,-0.0005,0.0014
0.75,0,0.0003,0.0003,0.0012
0.8,-0.006,-0.0013,-0.0003,-0.0002
0.85,-0.006,0.002,-0.002,-0.0014
0.9,0,-0.0009,-0.0003,0.0004
0.95,-0.006,0.0014,0.0001,-0.0002
1,-0.006,-0.0001,0.0003,-0.0017
1.05,-0.006,0.0011,-0.002,0.0002
1.1,0,0.0005,-0.0007,-0.0002
1.15,-0.006,-0.0001,-0.0013,-0.0029
1.2,0,-0.0005,-0.0011,-0.0023
1.25,-0.006,0.0011,-0.0005,-0.001
1.3,-0.006,-0.0009,0.0013,-0.0014
1.35,0,-0.0005,-0.0001,0.0021
1.4,0,0.0003,-0.0005,-0.0004
1.45,-0.006,-0.0003,-0.0015,0.001
1.5,-0.006,0.0012,-0.0011,0
1.55,-0.006,0.0016,0.0003,0.001
1.6,-0.006,-0.0001,-0.0005,0
1.65,-0.006,-0.0005,0.0005,-0.0012
1.7,0,0.0003,-0.0005,-0.0004
1.75,-0.006,0.0016,-0.0018,-0.0004
1.8,-0.006,0.0007,-0.0009,0.0006
1.85,0,0.0016,0.0011,0.0006
1.9,0,0.0001,-0.0005,0.0008
1.95,-0.006,-0.0009,0.002,0.001
2,0,0.0011,-0.0005,0.0017
2.05,0,0.0005,0.0005,0.0008
2.1,0,0.0016,-0.0009,0.001
2.15,-0.006,0.0011,-0.0011,0.0017
2.2,-0.006,0.0011,-0.0016,0.0008
2.25,-0.006,-0.0005,-0.0018,-0.0008
2.3,0,0.0014,-0.0011,0.0019
2.35,-0.006,-0.0007,-0.0016,-0.0008
2.4,0,0.0012,0.0001,-0.0014
2.45,-0.006,-0.0005,-0.0016,0.0017
2.5,0,0.0005,0.0001,0.0006
2.55,-0.006,0.0005,0.0009,-0.0012
2.6,-0.006,0.0001,-0.0013,0.0002
2.65,0,0.0007,-0.0016,-0.0006
2.7,0,0.0003,-0.0007,0.0012
2.75,-0.006,0.0005,-0.0011,-0.0002
2.8,-0.006,0.0011,0.0009,0.0002
2.85,0,-0.0009,-0.0009,0.001
2.9,-0.006,0.0005,-0.0018,0.001
2.95,0,0.0018,-0.0015,0.0008
3,0,0.0014,-0.0013,0.0016
3.05,-0.006,0.0001,-0.0013,0.0008
3.1,-0.006,0.0011,0.0005,0
3.15,-0.006,0.0003,0.0007,0.0008
3.2,0,0.0016,0.0007,-0.0012
3.25,0,0.0005,0.0001,0.0008
3.3,-0.006,0.0018,0.0003,0.0021
3.35,0,-0.0003,0.0007,-0.0014
3.4,0,0.0012,0.0003,0.0006
3.45,0,0.0016,-0.0018,0.0008
3.5,0,0.0001,-0.0011,0.0014
3.55,0,0.0011,-0.0001,0.0023
3.6,0,0.0012,0.0005,0.001
3.65,0,-0.0007,0.0005,0.0014
3.7,0,-0.0005,-0.0007,0.0029
3.75,0,0.0014,-0.0011,-0.0004
3.8,0,0.0003,0.0005,0
3.85,0,-0.0019,-0.0009,-0.0002
3.9,-0.006,-0.0005,0.0011,-0.0019
3.95,0,0.0003,0.0007,0.0008
4,-0.006,0.0011,-0.0022,-0.001
4.05,0,0.0001,0.0005,0
4.1,0,-0.0005,0.0015,0.0012
4.15,0,0.002,0.0005,-0.0014
4.2,-0.006,-0.0005,0.0013,-0.0006
4.25,0,0.0007,-0.0003,0
4.3,0,0.0016,0.0003,-0.0004
4.35,0.005,0.0003,0.0005,0.0008
4.4,0.005,-0.0021,-0.0016,-0.0014
4.45,0.005,-0.0005,-0.0003,0.0017
4.5,0.005,0.0011,0.0009,0.0006
4.55,0.005,0.0001,-0.0005,0
4.6,0.005,0.0003,-0.0011,0.0006
4.65,0.005,-0.0005,0.0003,0
4.7,0.005,0.0007,-0.0015,0.0006
4.75,0.005,0.0014,-0.0005,-0.0002
4.8,0.01,0.0018,0.0013,-0.0002
4.85,0.005,0.0011,0.0003,0.0004
4.9,0.005,0.0007,-0.0011,0
4.95,0.005,-0.0001,-0.0003,-0.0004
5,0.01,0.0001,0.0003,-0.0012
5.05,0.01,-0.0007,-0.0013,0.0016
5.1,0.01,-0.0013,0.0001,0.0004
5.15,0.005,0.0003,0.0017,0.0021
5.2,0.01,0.0003,-0.0011,0.0002
5.25,0.01,-0.0009,0.0005,-0.0014
5.3,0.01,0.0003,-0.0013,0.001
5.35,0.01,0.0011,0.0007,0
5.4,0.005,0.0003,0.0007,0.0004
5.45,0.01,0.0001,-0.0011,-0.0017
5.5,0.005,-0.0005,-0.0003,-0.0004
5.55,0.005,-0.0005,-0.0011,0
5.6,0.01,-0.0005,-0.002,0.0014
5.65,0.01,-0.0001,-0.0015,-0.0012
5.7,0.01,-0.0007,-0.0007,-0.0014
5.75,0.01,-0.0013,-0.0009,-0.0004
5.8,0.005,-0.0005,-0.0013,0.0023
5.85,0.005,-0.0009,0.0001,0.0002
5.9,0.01,-0.0009,-0.0011,0.0006
5.95,0.01,-0.0005,-0.0003,0.0006
6,0.005,0.0012,-0.0015,0.001
6.05,0.01,0.0003,-0.0026,0.0002
6.1,0.01,0.0007,0.0001,-0.0012
6.15,0.01,-0.0003,-0.0005,0.0008
6.2,0.005,-0.0007,-0.0015,0
6.25,0.005,0.0003,-0.0003,-0.001
6.3,0.01,-0.0003,0.0005,0.0008
6.35,0.01,0.0011,-0.0003,0.0016
6.4,0.01,-0.0024,-0.0016,0.0014
6.45,0.01,-0.0007,-0.0016,-0.0004
6.5,0.01,-0.0007,-0.0007,0.001
6.55,0.015,-0.0005,-0.0011,0.0008
6.6,0.01,0.0001,-0.002,0.0017
6.65,0.015,-0.0009,-0.0011,-0.0002
6.7,0.015,-0.0001,-0.0009,-0.0004
6.75,0.015,-0.0003,-0.0005,0
6.8,0.015,-0.0005,-0.0018,-0.0008
6.85,0.01,0.0001,0.0011,0.0002
6.9,0.015,0.0007,-0.0009,0.0006
6.95,0.015,-0.0005,-0.0013,0.0006
7,0.015,0.0011,-0.0013,0.0002
7.05,0.015,-0.0024,0.0007,-0.0006
7.1,0.015,-0.0003,0.0005,-0.0008
7.15,0.015,-0.0021,0.0003,-0.0006
7.2,0.015,-0.0019,-0.0001,-0.0025
7.25,0.015,-0.0015,-0.0018,-0.0019
7.3,0.01,-0.0017,-0.002,-0.0021
7.35,0.015,-0.0013,-0.0018,0.0002
7.4,0.015,-0.0005,0.0003,0.0002
7.45,0.015,-0.0009,-0.0001,0.0012
7.5,0.021,-0.0013,-0.0032,0.0016
7.55,0.015,-0.0009,-0.0003,-0.0004
7.6,0.015,-0.0007,-0.0005,0
7.65,0.015,0.0016,-0.0015,0.0008
7.7,0.015,-0.0003,-0.0005,-0.0004
7.75,0.015,-0.0009,-0.0026,0.0002
7.8,0.015,0.0016,-0.0016,-0.0002
7.85,0.015,0.0005,-0.0018,-0.0006
7.9,0.021,-0.0011,-0.0018,-0.001
7.95,0.015,-0.0003,-0.0009,-0.0014
8,0.015,-0.0005,-0.0018,-0.0021
8.05,0.01,-0.0019,-0.0011,-0.001
8.1,0.015,-0.0001,-0.0011,0.0016
8.15,0.021,-0.0013,-0.0016,0.0008
8.2,0.015,0.0001,-0.0022,-0.0014
8.25,0.015,-0.0007,-0.0009,0.0006
8.3,0.015,-0.0015,-0.0022,-0.0019
8.35,0.021,-0.0005,-0.002,0.0012
8.4,0.021,0.0012,-0.0011,0.0008
8.45,0.021,-0.0022,-0.0001,0.0017
8.5,0.021,-0.0001,-0.0011,-0.0014
8.55,0.021,-0.0022,-0.0011,-0.0014
8.6,0.026,-0.0009,-0.0011,0
8.65,0.026,-0.0007,-0.0011,0.0021
8.7,0.026,-0.0013,-0.0016,0
8.75,0.026,-0.0003,-0.0001,0.001
8.8,0.026,-0.0007,-0.0009,0.001
8.85,0.026,-0.0013,0.0001,-0.0004
8.9,0.026,-0.0013,-0.0005,-0.001
8.95,0.026,-0.0034,-0.0009,0.0002
9,0.026,-0.0011,0.0005,0.0014
9.05,0.026,-0.0021,-0.0005,0.0012
9.1,0.026,-0.0024,-0.002,0.001
9.15,0.026,-0.0011,-0.0026,0.001
9.2,0.026,-0.0015,-0.002,0.0004
9.25,0.026,-0.0022,-0.0011,-0.0002
9.3,0.026,-0.0013,-0.0013,0.0016
9.35,0.026,-0.0011,-0.0013,0
9.4,0.026,-0.0022,-0.0013,0.0002
9.45,0.026,-0.003,-0.0018,-0.0021
9.5,0.026,-0.0022,-0.0009,0.0002
9.55,0.026,-0.0021,-0.0015,0.0004
9.6,0.026,-0.0021,-0.0015,0.0012
9.65,0.026,-0.0015,-0.0016,0
9.7,0.026,-0.0024,-0.0005,-0.0014
9.75,0.026,-0.0015,-0.0013,0.0012
9.8,0.026,-0.0021,-0.003,-0.0031
9.85,0.026,-0.0026,-0.0013,0.0008
9.9,0.026,0.0001,-0.0009,-0.0016
9.95,0.026,-0.0022,-0.0015,0.0002
10,0.026,-0.0021,-0.0003,-0.0014
10.05,0.026,0.0011,-0.0011,-0.0006
10.1,0.026,-0.0013,-0.0005,-0.0006
10.15,0.026,-0.0005,-0.0016,0.001
10.2,0.031,-0.0015,-0.0013,0.0002
10.25,0.031,-0.0021,-0.0013,-0.0019
10.3,0.031,-0.0019,-0.0007,0
10.35,0.036,0.0003,-0.0015,0.0012
10.4,0.031,-0.0015,-0.0028,-0.0029
10.45,0.036,-0.0022,-0.003,-0.0014
10.5,0.031,-0.0013,-0.003,-0.0002
10.55,0.031,-0.0021,-0.0034,0.0008
10.6,0.031,-0.0022,-0.0022,0.0006
10.65,0.031,-0.0005,-0.0005,-0.0012
10.7,0.036,-0.0024,-0.0011,0.0004
10.75,0.031,-0.0021,-0.0024,-0.0002
10.8,0.031,-0.0009,-0.0042,0.0002
10.85,0.036,-0.0032,-0.0009,-0.001
10.9,0.031,-0.0034,-0.0036,-0.0017
10.95,0.031,-0.0015,-0.003,0.0002
11,0.036,-0.0026,-0.0024,-0.0029
11.05,0.031,-0.0013,-0.0018,-0.0004
11.1,0.031,-0.0017,-0.0007,-0.0016
11.15,0.036,-0.0024,-0.002,-0.0025
11.2,0.036,-0.0026,-0.002,-0.0021
11.25,0.036,-0.003,-0.0003,-0.0004
11.3,0.036,-0.0021,-0.0026,-0.001
11.35,0.031,-0.0024,-0.0011,-0.0019
11.4,0.036,-0.0021,-0.002,-0.0029
11.45,0.036,-0.0026,-0.0022,-0.0012
11.5,0.031,-0.0024,-0.0009,-0.0021
11.55,0.036,-0.0015,-0.0028,-0.0016
11.6,0.036,-0.0019,-0.002,-0.0019
11.65,0.036,-0.0024,-0.0003,0.0006
11.7,0.036,-0.0022,-0.0011,-0.0014
11.75,0.031,-0.0005,-0.0034,-0.0012
11.8,0.031,-0.0013,-0.0011,-0.0004
11.85,0.031,-0.0019,-0.0024,-0.0014
11.9,0.031,-0.0028,-0.0013,-0.0014
11.95,0.031,-0.0021,-0.0022,-0.0002
12,0.036,-0.0036,-0.0013,-0.0016
12.05,0.031,-0.0015,-0.0013,-0.0037
12.1,0.036,-0.0019,-0.0015,-0.0027
12.15,0.031,-0.003,-0.0011,0
12.2,0.036,-0.0007,-0.0024,-0.0016
12.25,0.031,-0.0021,-0.0015,-0.0019
12.3,0.036,-0.0013,-0.0034,-0.0023
12.35,0.042,-0.0021,-0.0022,0.0002
12.4,0.042,-0.0026,-0.003,-0.0014
12.45,0.042,-0.0022,-0.0028,-0.0016
12.5,0.036,-0.0036,-0.0034,-0.0019
12.55,0.036,-0.0019,-0.0036,-0.0016
12.6,0.042,-0.0019,-0.003,-0.001
12.65,0.047,-0.003,-0.0036,0.0006
12.7,0.047,-0.0021,-0.0024,-0.0014
12.75,0.042,-0.0032,-0.002,-0.0017
12.8,0.047,-0.0032,-0.0013,0.0004
12.85,0.047,-0.003,-0.0015,-0.0004
12.9,0.042,-0.0028,-0.0011,-0.0021
12.95,0.042,-0.0024,-0.0007,-0.0016
13,0.042,-0.0011,-0.0016,-0.0019
13.05,0.042,-0.0015,-0.0022,-0.0008
13.1,0.042,-0.0028,-0.0038,0.001
13.15,0.047,-0.0011,-0.0024,-0.0021
13.2,0.042,-0.0024,-0.0024,-0.0016
13.25,0.042,-0.0026,-0.0026,-0.0012
13.3,0.042,-0.0022,-0.0011,-0.0016
13.35,0.042,-0.0028,-0.0016,-0.0016
13.4,0.042,-0.0024,-0.0018,-0.0004
13.45,0.047,-0.0009,-0.0018,-0.0016
13.5,0.042,-0.0019,-0.0028,-0.001
13.55,0.047,-0.0013,-0.0015,-0.0025
13.6,0.042,-0.0019,-0.0026,-0.001
13.65,0.047,-0.0019,-0.0026,0.0008
13.7,0.047,-0.003,-0.0036,-0.001
13.75,0.042,-0.0017,-0.0013,-0.0014
13.8,0.047,-0.0028,-0.0024,-0.0014
13.85,0.047,-0.0024,-0.002,-0.0014
13.9,0.052,-0.0048,-0.0015,-0.0029
13.95,0.052,-0.0038,-0.0034,-0.0025
14,0.052,-0.003,-0.0024,-0.0019
14.05,0.052,-0.0022,-0.0015,-0.0012
14.1,0.052,-0.0022,-0.0013,-0.001
14.15,0.052,-0.0028,-0.0018,-0.0023
14.2,0.052,-0.0017,-0.0032,-0.0029
14.25,0.052,-0.0038,-0.0038,-0.0017
14.3,0.052,-0.0026,-0.0016,-0.0014
14.35,0.052,-0.003,-0.0022,-0.0029
14.4,0.052,-0.003,-0.0026,-0.0014
14.45,0.047,-0.0044,-0.0013,-0.0033
14.5,0.052,-0.0022,-0.0026,-0.0041
14.55,0.052,-0.0021,-0.0032,-0.0027
14.6,0.052,-0.0028,-0.0024,0
14.65,0.052,-0.0034,-0.0018,-0.0029
14.7,0.052,-0.0034,-0.0036,-0.0031
14.75,0.052,-0.0034,-0.0042,-0.0025
14.8,0.052,-0.0028,-0.0038,-0.0021
14.85,0.052,-0.0028,-0.0034,-0.0023
14.9,0.052,-0.004,-0.0022,-0.0027
14.95,0.052,-0.0028,-0.0016,-0.0016
15,0.058,-0.0032,-0.0026,-0.0035
15.05,0.052,-0.0028,-0.0026,-0.0014
15.1,0.052,-0.0024,-0.0024,-0.0014
15.15,0.052,-0.0024,-0.0028,-0.001
15.2,0.052,-0.0015,-0.0034,-0.0016
15.25,0.052,-0.0028,-0.0013,-0.001
15.3,0.052,-0.0028,-0.0044,-0.0051
15.35,0.052,-0.003,-0.0036,-0.0002
15.4,0.052,-0.0028,-0.003,-0.0021
15.45,0.052,-0.0038,-0.0018,-0.0031
15.5,0.052,-0.0032,-0.0015,-0.0014
15.55,0.052,-0.0028,-0.0042,-0.0031
15.6,0.052,-0.0021,-0.0022,-0.0027
15.65,0.052,-0.0028,-0.0034,-0.0021
15.7,0.052,-0.0036,-0.0015,-0.0031
15.75,0.052,-0.0032,-0.003,-0.0029
15.8,0.052,-0.0021,-0.0028,-0.0025
15.85,0.052,-0.0032,-0.0013,-0.0017
15.9,0.052,-0.0038,-0.0003,-0.0019
15.95,0.047,-0.0042,-0.0026,-0.0019
16,0.052,-0.0034,-0.0028,-0.0023
16.05,0.052,-0.0026,-0.0022,-0.0014
16.1,0.052,-0.0024,-0.0036,-0.0012
16.15,0.052,-0.003,-0.0013,-0.0014
16.2,0.052,-0.0015,-0.0036,-0.0014
16.25,0.052,-0.003,-0.0046,-0.0041
16.3,0.047,-0.0024,-0.0044,-0.0017
16.35,0.047,-0.0015,-0.0042,-0.0029
16.4,0.052,-0.0038,-0.0028,-0.0023
16.45,0.058,-0.0028,-0.0042,-0.0004
16.5,0.058,-0.0036,-0.0015,-0.0025
16.55,0.063,-0.003,-0.0026,-0.0025
16.6,0.063,-0.0034,-0.0036,-0.0023
16.65,0.063,-0.0032,-0.0034,-0.0025
16.7,0.063,-0.0028,-0.0026,-0.0019
16.75,0.063,-0.0026,-0.0024,-0.0037
16.8,0.063,-0.0015,-0.0046,-0.0019
16.85,0.063,-0.0042,-0.004,-0.0021
16.9,0.063,-0.0026,-0.0032,-0.0041
16.95,0.063,-0.0028,-0.0011,-0.0037
17,0.063,-0.004,-0.0036,-0.0043
17.05,0.063,-0.0028,-0.0009,-0.0047
17.1,0.063,-0.003,-0.0038,-0.0019
17.15,0.058,-0.0053,-0.0011,-0.0014
17.2,0.063,-0.0036,-0.0016,-0.0035
17.25,0.063,-0.003,-0.0005,-0.0043
17.3,0.063,-0.0044,-0.0032,-0.0035
17.35,0.063,-0.005,-0.0032,-0.0041
17.4,0.063,-0.0038,-0.0038,-0.0016
17.45,0.063,-0.0034,-0.0026,-0.0031
17.5,0.063,-0.004,-0.003,-0.0029
17.55,0.063,-0.0052,-0.0026,-0.0025
17.6,0.063,-0.0036,-0.0026,-0.0031
17.65,0.063,-0.0044,-0.0026,-0.001
17.7,0.063,-0.0034,-0.0034,-0.0021
17.75,0.063,-0.005,-0.0026,-0.0029
17.8,0.063,-0.0038,-0.0026,-0.0029
17.85,0.063,-0.0038,-0.0032,-0.0012
17.9,0.063,-0.0022,-0.003,-0.0029
17.95,0.063,-0.0021,-0.0036,-0.0029
18,0.063,-0.005,-0.0026,-0.0006
18.05,0.063,-0.003,-0.0038,-0.0019
18.1,0.063,-0.0024,-0.0034,-0.0017
18.15,0.063,-0.0022,-0.002,-0.0029
18.2,0.063,-0.0036,-0.003,-0.0031
18.25,0.063,-0.0038,-0.0028,-0.0041
18.3,0.068,-0.0026,-0.0059,-0.0021
18.35,0.063,-0.0028,-0.003,-0.0027
18.4,0.063,-0.0036,-0.0038,-0.0021
18.45,0.063,-0.0028,-0.0049,-0.0031
18.5,0.063,-0.005,-0.0036,-0.0027
18.55,0.063,-0.0007,-0.002,-0.0041
18.6,0.063,-0.0036,-0.0036,-0.0031
18.65,0.063,-0.0036,-0.0036,-0.0016
18.7,0.063,-0.0019,-0.0026,-0.0031
18.75,0.063,-0.0011,-0.0018,-0.0035
18.8,0.063,-0.0028,-0.0038,-0.0019
18.85,0.063,-0.0026,-0.0042,-0.0019
18.9,0.068,-0.0038,-0.0028,-0.0029
18.95,0.063,-0.0021,-0.0032,-0.0031
19,0.063,-0.0034,-0.0032,-0.0021
19.05,0.063,-0.0022,-0.0013,-0.0025
19.1,0.063,-0.0048,-0.0042,-0.0039
19.15,0.063,-0.0042,-0.003,-0.0037
19.2,0.063,-0.003,-0.0018,-0.0031
19.25,0.063,-0.0024,-0.0009,-0.0031
19.3,0.063,-0.003,-0.0015,-0.0019
19.35,0.063,-0.0038,-0.0036,-0.0047
19.4,0.063,-0.0032,-0.0018,-0.0023
19.45,0.063,-0.0024,-0.0013,-0.0045
19.5,0.063,-0.004,-0.0022,-0.0029
19.55,0.063,-0.003,-0.004,-0.0033
19.6,0.063,-0.0028,-0.004,-0.0014
19.65,0.063,-0.0036,-0.0018,-0.0025
19.7,0.063,-0.0034,-0.002,-0.0039
19.75,0.063,-0.0038,-0.0024,-0.0029
19.8,0.063,-0.003,-0.0015,-0.0016
19.85,0.063,-0.0028,-0.0034,-0.0031
19.9,0.063,-0.0028,-0.0036,-0.0025
19.95,0.063,-0.0044,-0.0036,-0.0027
20,0.063,-0.0028,-0.0013,-0.0037
20.05,0.063,-0.0028,-0.0024,-0.0023
20.1,0.063,-0.0026,-0.003,-0.0033
20.15,0.063,-0.0034,-0.0016,-0.0016
20.2,0.063,-0.0028,-0.0034,-0.0019
20.25,0.063,-0.0042,-0.003,-0.0037
20.3,0.063,-0.0048,-0.0034,-0.0025
20.35,0.063,-0.0036,-0.0015,-0.0029
20.4,0.063,-0.0034,-0.0011,-0.0019
20.45,0.063,-0.0034,-0.0003,-0.0025
20.5,0.063,-0.0038,-0.0018,-0.0019
20.55,0.063,-0.0032,-0.0026,-0.0021
20.6,0.063,-0.0021,-0.0024,-0.0029
20.65,0.063,-0.0024,-0.0028,-0.0016
20.7,0.063,-0.003,-0.0028,-0.0017
20.75,0.068,-0.0026,-0.0026,-0.0039
20.8,0.068,-0.0024,-0.003,-0.0017
20.85,0.068,-0.0038,-0.0028,-0.0014
20.9,0.068,-0.0024,-0.002,-0.0035
20.95,0.073,-0.0034,-0.0042,-0.0021
21,0.068,-0.0042,-0.0026,-0.0047
21.05,0.073,-0.0021,-0.003,-0.0016
21.1,0.073,-0.0052,-0.0028,-0.0027
21.15,0.073,-0.0019,-0.0042,-0.0017
21.2,0.073,-0.0028,-0.002,-0.0023
21.25,0.073,-0.0048,-0.0049,-0.0035
21.3,0.073,-0.0032,-0.0042,-0.0012
21.35,0.068,-0.0028,-0.0032,-0.0033
21.4,0.073,-0.0044,-0.0013,-0.0041
21.45,0.073,-0.0036,-0.0022,-0.0021
21.5,0.073,-0.004,-0.0013,-0.0012
21.55,0.073,-0.0038,-0.0036,-0.0027
21.6,0.073,-0.0022,-0.004,-0.0014
21.65,0.073,-0.003,-0.0026,-0.0021
21.7,0.068,-0.0032,-0.0028,-0.0017
21.75,0.068,-0.0036,-0.0036,-0.0008
21.8,0.073,-0.0021,-0.0044,-0.0025
21.85,0.073,-0.0028,-0.0034,-0.0031
21.9,0.073,-0.0034,-0.0028,-0.0035
21.95,0.073,-0.0015,-0.0036,-0.0021
22,0.068,-0.0021,-0.0016,-0.0037
22.05,0.073,-0.0032,-0.0032,-0.0033
22.1,0.068,-0.0022,-0.0015,-0.0025
22.15,0.068,-0.0019,-0.004,-0.0023
22.2,0.073,-0.0028,-0.0032,-0.0021
22.25,0.073,-0.0021,-0.0024,-0.0037
22.3,0.068,-0.0028,-0.004,-0.0019
22.35,0.073,-0.0028,-0.0049,-0.0031
22.4,0.073,-0.0022,-0.0024,-0.0037
22.45,0.073,-0.0017,-0.0042,-0.0029
22.5,0.068,-0.0036,-0.0042,-0.0025
22.55,0.073,-0.0019,-0.0024,-0.0035
22.6,0.073,-0.0021,-0.002,-0.0035
22.65,0.073,-0.0038,-0.0016,-0.0017
22.7,0.073,-0.0034,-0.0034,-0.0021
22.75,0.068,-0.0046,-0.004,-0.0017
22.8,0.073,-0.0028,-0.004,-0.0021
22.85,0.073,-0.0024,-0.0032,-0.0025
22.9,0.073,-0.0042,-0.0032,-0.0025
22.95,0.073,-0.0021,-0.0042,-0.0014
23,0.073,-0.0026,-0.004,-0.0012
23.05,0.073,-0.004,-0.0034,-0.0025
23.1,0.073,-0.004,-0.0036,-0.0016
23.15,0.073,-0.0032,-0.0042,-0.0035
23.2,0.073,-0.004,-0.0018,-0.0023
23.25,0.073,-0.0038,-0.0036,-0.0027
23.3,0.073,-0.003,-0.0016,-0.0033
23.35,0.073,-0.003,-0.0036,-0.0029
23.4,0.073,-0.0038,-0.0024,-0.0023
23.45,0.073,-0.0046,-0.0034,-0.0012
23.5,0.073,-0.0026,-0.0022,-0.0047
23.55,0.073,-0.0038,-0.0024,-0.0041
23.6,0.073,-0.0048,-0.0038,-0.0023
23.65,0.078,-0.0036,-0.0028,-0.0027
23.7,0.078,-0.0024,-0.0032,-0.0047
23.75,0.078,-0.0048,-0.0028,-0.0045
23.8,0.078,-0.0036,-0.003,-0.0037
23.85,0.078,-0.0034,-0.0015,-0.0045
23.9,0.078,-0.0024,-0.0026,-0.0039
23.95,0.078,-0.005,-0.004,-0.0037
24,0.078,-0.0038,-0.0026,-0.0052
24.05,0.078,-0.003,-0.0026,-0.0037
24.1,0.084,-0.0034,-0.003,-0.0029
24.15,0.084,-0.0028,-0.0024,-0.0035
24.2,0.078,-0.003,-0.0032,-0.0037
24.25,0.078,-0.0038,-0.0036,-0.0041
24.3,0.084,-0.005,-0.0032,-0.0031
24.35,0.084,-0.005,-0.0016,-0.0025
24.4,0.078,-0.0042,-0.0032,-0.0031
24.45,0.078,-0.0038,-0.003,-0.0023
24.5,0.078,-0.003,-0.0046,-0.0016
24.55,0.078,-0.0036,-0.0034,-0.0014
24.6,0.078,-0.004,-0.004,-0.0035
24.65,0.078,-0.0028,-0.0036,-0.0035
24.7,0.078,-0.0034,-0.0038,-0.0012
24.75,0.084,-0.0046,-0.0032,-0.0021
24.8,0.078,-0.0034,-0.004,-0.0023
24.85,0.078,-0.0017,-0.0018,-0.0039
24.9,0.078,-0.0024,-0.0042,-0.0029
24.95,0.078,-0.003,-0.0036,-0.0021
25,0.078,-0.0017,-0.0018,-0.0029
25.05,0.078,-0.0052,-0.0038,-0.0035
25.1,0.084,-0.0036,-0.0034,-0.0027
25.15,0.078,-0.0034,-0.0018,-0.0039
25.2,0.084,-0.0034,-0.0034,-0.0031
25.25,0.078,-0.0046,-0.0032,-0.0029
25.3,0.078,-0.0042,-0.004,-0.0021
25.35,0.078,-0.0036,-0.0047,0.0002
25.4,0.078,-0.004,-0.0038,-0.0021
25.45,0.084,-0.0038,-0.0034,-0.001
25.5,0.078,-0.004,-0.0026,-0.001
25.55,0.078,-0.0026,-0.0036,-0.0016
25.6,0.078,-0.0034,-0.0015,-0.0019
25.65,0.078,-0.0042,-0.003,-0.0033
25.7,0.078,-0.0046,-0.003,-0.0031
25.75,0.078,-0.0052,-0.003,-0.0029
25.8,0.078,-0.0048,-0.0036,-0.0045
25.85,0.084,-0.0034,-0.0028,-0.0019
25.9,0.084,-0.0017,-0.0044,-0.001
25.95,0.078,-0.0038,-0.0036,-0.0017
26,0.084,-0.0038,-0.0034,-0.0039
26.05,0.084,-0.0038,-0.0042,-0.0019
26.1,0.078,-0.0038,-0.0028,-0.0021
26.15,0.078,-0.004,-0.0026,-0.0021
26.2,0.078,-0.003,-0.004,-0.0031
26.25,0.078,-0.0046,-0.0038,-0.0031
26.3,0.078,-0.003,-0.0046,-0.0019
26.35,0.084,-0.0042,-0.0042,-0.0029
26.4,0.078,-0.0046,-0.0024,-0.0025
26.45,0.078,-0.0055,-0.0059,-0.0035
26.5,0.078,-0.0036,-0.0044,-0.0037
26.55,0.078,-0.0036,-0.0034,-0.0027
26.6,0.078,-0.0044,-0.0047,-0.0035
26.65,0.078,-0.0053,-0.0044,-0.0025
26.7,0.078,-0.0046,-0.0042,-0.0033
26.75,0.078,-0.0061,-0.004,-0.0025
26.8,0.084,-0.0028,-0.003,-0.0031
26.85,0.084,-0.0038,-0.0036,-0.0031
26.9,0.078,-0.0048,-0.004,-0.0021
26.95,0.084,-0.0038,-0.0061,-0.0029
27,0.084,-0.0026,-0.0051,-0.0017
27.05,0.084,-0.005,-0.0036,-0.0006
27.1,0.078,-0.0052,-0.0051,-0.0039
27.15,0.084,-0.0036,-0.0038,-0.0041
27.2,0.078,-0.0046,-0.0042,-0.0037
27.25,0.078,-0.0038,-0.0036,-0.0027
27.3,0.084,-0.0036,-0.0024,-0.0019
27.35,0.084,-0.003,-0.004,-0.0033
27.4,0.078,-0.0042,-0.0044,-0.0019
27.45,0.084,-0.0038,-0.004,-0.0023
27.5,0.084,-0.0044,-0.0038,-0.0023
27.55,0.084,-0.0036,-0.0034,-0.0031
27.6,0.084,-0.0038,-0.0026,-0.0035
27.65,0.078,-0.0028,-0.003,-0.0023
27.7,0.078,-0.0044,-0.0026,-0.0037
27.75,0.084,-0.0053,-0.003,-0.0037
27.8,0.078,-0.0046,-0.0026,-0.0025
27.85,0.078,-0.0055,-0.0034,-0.0029
27.9,0.078,-0.0046,-0.0046,-0.0029
27.95,0.084,-0.0044,-0.0036,-0.0037
28,0.078,-0.0036,-0.0042,-0.0037
28.05,0.084,-0.0052,-0.004,-0.0049
28.1,0.078,-0.0028,-0.0061,-0.0043
28.15,0.078,-0.0052,-0.0046,-0.0023
28.2,0.078,-0.003,-0.0044,-0.0029
28.25,0.084,-0.0036,-0.0049,-0.0027
28.3,0.084,-0.0038,-0.0022,-0.0029
28.35,0.078,-0.0038,-0.0024,-0.006
28.4,0.084,-0.0048,-0.0024,-0.0016
28.45,0.084,-0.0048,-0.004,-0.0031
28.5,0.078,-0.0038,-0.0036,-0.0051
28.55,0.078,-0.0019,-0.003,-0.0039
28.6,0.084,-0.0028,-0.0028,-0.0023
28.65,0.084,-0.0038,-0.0024,-0.0031
28.7,0.084,-0.0042,-0.0015,-0.0041
28.75,0.084,-0.0042,-0.0036,-0.0037
28.8,0.078,-0.0052,-0.003,-0.0014
28.85,0.078,-0.0053,-0.0026,-0.0008
28.9,0.078,-0.0038,-0.0011,-0.0021
28.95,0.078,-0.0042,-0.0015,-0.0029
29,0.078,-0.0038,-0.0028,-0.0039
29.05,0.084,-0.0042,-0.0026,-0.0014
29.1,0.084,-0.0034,-0.0026,-0.0023
29.15,0.084,-0.0046,-0.0026,-0.0035
29.2,0.084,-0.0034,-0.003,-0.0037
29.25,0.084,-0.0028,-0.0044,-0.0017
29.3,0.078,-0.0052,-0.0026,-0.0025
29.35,0.078,-0.0026,-0.0022,-0.0025
29.4,0.078,-0.0044,-0.0022,-0.0027
29.45,0.084,-0.0032,-0.0026,-0.0027
29.5,0.084,-0.0044,-0.0034,-0.0019
29.55,0.078,-0.0044,-0.0026,-0.0033
29.6,0.078,-0.0046,-0.0032,-0.0033
29.65,0.078,-0.0042,-0.003,-0.0031
29.7,0.078,-0.0038,-0.0042,-0.0033
29.75,0.078,-0.0034,-0.0032,-0.0033
29.8,0.078,-0.003,-0.0016,-0.0014
29.85,0.084,-0.0044,-0.002,-0.0031
29.9,0.078,-0.004,-0.004,-0.0037
29.95,0.084,-0.0044,-0.0026,-0.0049
30,0.078,-0.0038,-0.003,-0.0029
30.05,0.078,-0.0052,-0.002,-0.0016
30.1,0.078,-0.0038,-0.0034,-0.0033
30.15,0.078,-0.004,-0.0036,-0.0016
30.2,0.078,-0.004,-0.0032,-0.0014
30.25,0.078,-0.004,-0.0026,-0.0037
30.3,0.084,-0.0052,-0.0049,-0.0043
30.35,0.084,-0.0042,-0.0028,-0.0025
30.4,0.084,-0.0046,-0.0028,-0.0035
30.45,0.078,-0.0046,-0.002,-0.0051
30.5,0.084,-0.0055,-0.003,-0.0031
30.55,0.084,-0.0026,-0.0024,-0.0037
30.6,0.078,-0.0044,-0.0022,-0.0023
30.65,0.078,-0.0036,-0.0038,-0.0035
30.7,0.078,-0.0052,-0.0036,-0.0031
30.75,0.084,-0.0052,-0.0042,-0.0023
30.8,0.078,-0.0046,-0.004,-0.0045
30.85,0.078,-0.0055,-0.0042,-0.0037
30.9,0.078,-0.0044,-0.0032,-0.0027
30.95,0.084,-0.004,-0.0028,-0.0019
31,0.084,-0.0032,-0.0028,-0.0025
31.05,0.084,-0.0057,-0.0028,-0.0019
31.1,0.084,-0.0038,-0.0013,-0.0045
31.15,0.084,-0.0038,-0.0042,-0.0031
31.2,0.078,-0.003,-0.0024,-0.0039
31.25,0.084,-0.0026,-0.004,-0.0035
31.3,0.084,-0.0026,-0.0026,-0.0004
31.35,0.078,-0.0053,-0.0018,-0.0023
31.4,0.078,-0.0034,-0.0028,-0.0041
31.45,0.078,-0.0044,-0.0024,-0.0029
31.5,0.078,-0.0048,-0.0022,-0.0037
31.55,0.078,-0.0036,-0.004,-0.0031
31.6,0.078,-0.0015,-0.004,-0.0023
31.65,0.084,-0.0038,-0.002,-0.0033
31.7,0.078,-0.0034,-0.0018,-0.0033
31.75,0.078,-0.0032,-0.0024,-0.0025
31.8,0.084,-0.003,-0.0032,-0.0033
31.85,0.078,-0.0034,-0.0028,-0.0031
31.9,0.078,-0.0052,-0.0042,-0.0062
31.95,0.078,-0.004,-0.0036,-0.0021
32,0.073,-0.0048,-0.0026,-0.0037
32.05,0.078,-0.0034,-0.0026,-0.0033
32.1,0.084,-0.0044,-0.0026,-0.0017
32.15,0.084,-0.005,-0.0042,-0.0045
32.2,0.094,-0.0052,-0.0036,-0.0037
32.25,0.084,-0.0044,-0.0034,-0.0029
32.3,0.089,-0.0052,-0.0036,-0.0035
32.35,0.089,-0.0046,-0.0042,-0.0021
32.4,0.094,-0.0044,-0.0034,-0.0027
32.45,0.089,-0.0042,-0.0046,-0.0012
32.5,0.089,-0.0044,-0.0036,-0.0029
32.55,0.094,-0.0059,-0.0042,-0.0014
32.6,0.089,-0.0038,-0.0026,-0.0021
32.65,0.094,-0.0053,-0.0034,-0.0039
32.7,0.094,-0.0046,-0.0028,-0.0025
32.75,0.094,-0.004,-0.0024,-0.0019
32.8,0.094,-0.0038,-0.0032,-0.0023
32.85,0.094,-0.0038,-0.0022,-0.0041
32.9,0.089,-0.0053,-0.0036,-0.0035
32.95,0.089,-0.0044,-0.0042,-0.0025
33,0.094,-0.0046,-0.0038,-0.0027
33.05,0.089,-0.003,-0.003,-0.0037
33.1,0.094,-0.0028,-0.0042,-0.0025
33.15,0.094,-0.0019,-0.0042,-0.0031
33.2,0.089,-0.0036,-0.0044,-0.0043
33.25,0.089,-0.0044,-0.0055,-0.0033
33.3,0.089,-0.0053,-0.0034,-0.0035
33.35,0.089,-0.0038,-0.002,-0.0039
33.4,0.089,-0.004,-0.0034,-0.0025
33.45,0.094,-0.0046,-0.0042,-0.0027
33.5,0.094,-0.003,-0.0038,-0.0017
33.55,0.094,-0.0052,-0.0034,-0.0023
33.6,0.094,-0.0048,-0.004,-0.0039
33.65,0.089,-0.0048,-0.0024,-0.0054
33.7,0.094,-0.005,-0.0034,-0.0025
33.75,0.089,-0.0046,-0.0032,-0.0035
33.8,0.094,-0.0052,-0.0036,-0.0031
33.85,0.094,-0.0059,-0.0042,-0.0019
33.9,0.089,-0.005,-0.0038,-0.0019
33.95,0.094,-0.005,-0.0038,-0.0029
34,0.094,-0.0042,-0.0009,-0.0029
34.05,0.094,-0.0052,-0.0036,-0.0025
34.1,0.089,-0.0048,-0.0036,-0.0037
34.15,0.089,-0.0044,-0.0028,-0.0045
34.2,0.089,-0.005,-0.004,-0.0029
34.25,0.089,-0.0057,-0.0036,-0.0041
34.3,0.089,-0.005,-0.004,-0.0039
34.35,0.094,-0.005,-0.0036,-0.0049
34.4,0.094,-0.0042,-0.0034,-0.0039
34.45,0.089,-0.0036,-0.0018,-0.0037
34.5,0.094,-0.0038,-0.0028,-0.0041
34.55,0.094,-0.0052,-0.0036,-0.0035
34.6,0.089,-0.0057,-0.0038,-0.0039
34.65,0.089,-0.0052,-0.0044,-0.0051
34.7,0.089,-0.0053,-0.0034,-0.0041
34.75,0.094,-0.0052,-0.0055,-0.0031
34.8,0.094,-0.0055,-0.003,-0.0027
34.85,0.094,-0.0052,-0.0036,-0.0041
34.9,0.094,-0.0034,-0.0036,-0.0041
34.95,0.089,-0.004,-0.0051,-0.0027
35,0.094,-0.0042,-0.0038,-0.0041
35.05,0.094,-0.0044,-0.0038,-0.0025
35.1,0.094,-0.004,-0.0042,-0.0043
35.15,0.094,-0.0057,-0.002,-0.0045
35.2,0.094,-0.0057,-0.0038,-0.0025
35.25,0.094,-0.0061,-0.0047,-0.0029
35.3,0.1,-0.0057,-0.0049,-0.0014
35.35,0.1,-0.0055,-0.0044,-0.0014
35.4,0.1,-0.0059,-0.0038,-0.0039
35.45,0.094,-0.0032,-0.0038,-0.0052
35.5,0.1,-0.0052,-0.0026,-0.0056
35.55,0.094,-0.0059,-0.0046,-0.0056
35.6,0.1,-0.0055,-0.0042,-0.0054
35.65,0.1,-0.0061,-0.002,-0.0031
35.7,0.1,-0.0057,-0.0042,-0.0029
35.75,0.094,-0.0055,-0.0059,-0.0025
35.8,0.105,-0.0061,-0.0044,-0.0045
35.85,0.1,-0.0052,-0.0049,-0.0047
35.9,0.1,-0.0055,-0.0069,-0.0045
35.95,0.1,-0.0063,-0.0044,-0.0043
36,0.1,-0.0059,-0.0028,-0.0037
36.05,0.105,-0.0053,-0.004,-0.0051
36.1,0.1,-0.0061,-0.0055,-0.0049
36.15,0.1,-0.0055,-0.004,-0.0031
36.2,0.1,-0.0044,-0.0053,-0.0025
36.25,0.105,-0.0071,-0.0049,-0.0054
36.3,0.1,-0.004,-0.0057,-0.0045
36.35,0.1,-0.0057,-0.0061,-0.0037
36.4,0.1,-0.0061,-0.0053,-0.0051
36.45,0.094,-0.004,-0.0065,-0.0029
36.5,0.105,-0.0063,-0.0049,-0.0037
36.55,0.1,-0.0046,-0.0044,-0.0021
36.6,0.1,-0.0053,-0.0047,-0.0035
36.65,0.1,-0.0032,-0.0042,-0.0039
36.7,0.1,-0.0059,-0.0055,-0.0025
36.75,0.1,-0.005,-0.0047,-0.0029
36.8,0.094,-0.0048,-0.0057,-0.0043
36.85,0.1,-0.0059,-0.004,-0.0051
36.9,0.1,-0.0053,-0.0055,-0.0027
36.95,0.105,-0.0042,-0.004,-0.0045
37,0.1,-0.0055,-0.0046,-0.0045
37.05,0.1,-0.0052,-0.0051,-0.006
37.1,0.1,-0.0059,-0.0046,-0.0054
37.15,0.105,-0.0067,-0.0059,-0.0031
37.2,0.11,-0.0059,-0.0055,-0.0039
37.25,0.11,-0.0055,-0.0059,-0.0033
37.3,0.11,-0.0063,-0.0049,-0.0047
37.35,0.11,-0.0052,-0.0034,-0.0037
37.4,0.11,-0.0053,-0.0053,-0.0039
37.45,0.11,-0.0034,-0.0057,-0.0045
37.5,0.11,-0.0077,-0.0047,-0.0047
37.55,0.105,-0.0055,-0.004,-0.0045
37.6,0.11,-0.0065,-0.0038,-0.0037
37.65,0.11,-0.0046,-0.0047,-0.0037
37.7,0.11,-0.005,-0.0051,-0.0056
37.75,0.11,-0.0046,-0.0042,-0.0047
37.8,0.11,-0.0053,-0.0036,-0.0047
37.85,0.11,-0.0053,-0.0049,-0.0062
37.9,0.11,-0.0044,-0.0046,-0.0041
37.95,0.11,-0.0042,-0.0049,-0.0047
38,0.11,-0.0059,-0.0067,-0.0054
38.05,0.11,-0.0059,-0.0042,-0.0066
38.1,0.11,-0.0057,-0.0042,-0.0054
38.15,0.115,-0.0046,-0.0051,-0.006
38.2,0.11,-0.0052,-0.0046,-0.0047
38.25,0.115,-0.0052,-0.0038,-0.0043
38.3,0.115,-0.0052,-0.0044,-0.0058
38.35,0.11,-0.0055,-0.0053,-0.0052
38.4,0.11,-0.004,-0.0042,-0.0039
38.45,0.115,-0.0059,-0.0044,-0.0049
38.5,0.11,-0.0057,-0.0046,-0.0045
38.55,0.11,-0.0055,-0.0049,-0.0047
38.6,0.115,-0.0052,-0.0042,-0.0052
38.65,0.11,-0.0042,-0.004,-0.0045
38.7,0.115,-0.0053,-0.0049,-0.0051
38.75,0.115,-0.005,-0.0044,-0.0054
38.8,0.11,-0.0059,-0.0049,-0.0049
38.85,0.11,-0.0055,-0.0042,-0.0041
38.9,0.11,-0.0044,-0.0036,-0.0049
38.95,0.115,-0.0061,-0.0049,-0.0039
39,0.11,-0.0046,-0.0061,-0.0037
39.05,0.115,-0.0046,-0.0046,-0.0043
39.1,0.115,-0.0055,-0.0042,-0.0051
39.15,0.115,-0.0061,-0.0065,-0.0056
39.2,0.115,-0.0052,-0.0049,-0.0045
39.25,0.115,-0.0071,-0.0065,-0.0049
39.3,0.115,-0.0071,-0.0057,-0.0037
39.35,0.12,-0.0055,-0.0067,-0.0056
39.4,0.115,-0.0052,-0.0057,-0.0043
39.45,0.115,-0.005,-0.0067,-0.0043
39.5,0.115,-0.0075,-0.0047,-0.0047
39.55,0.12,-0.0053,-0.0061,-0.0037
39.6,0.12,-0.0061,-0.0061,-0.0058
39.65,0.115,-0.0059,-0.0057,-0.0052
39.7,0.12,-0.0063,-0.0055,-0.0043
39.75,0.115,-0.0063,-0.0051,-0.006
39.8,0.12,-0.0067,-0.0059,-0.0051
39.85,0.12,-0.0053,-0.0065,-0.0045
39.9,0.12,-0.0052,-0.0055,-0.0068
39.95,0.115,-0.0063,-0.0049,-0.0064
40,0.12,-0.0059,-0.0061,-0.0051
40.05,0.12,-0.0061,-0.0047,-0.0035
40.1,0.12,-0.005,-0.0055,-0.0029
40.15,0.12,-0.0053,-0.0049,-0.0051
40.2,0.12,-0.0052,-0.0055,-0.0047
40.25,0.12,-0.0053,-0.0055,-0.0051
40.3,0.12,-0.0032,-0.0069,-0.0056
40.35,0.12,-0.0042,-0.0073,-0.0056
40.4,0.12,-0.0042,-0.0057,-0.0054
40.45,0.115,-0.0053,-0.0065,-0.0058
40.5,0.12,-0.0048,-0.0059,-0.0035
40.55,0.12,-0.0046,-0.0055,-0.0068
40.6,0.115,-0.0053,-0.0046,-0.0051
40.65,0.12,-0.0059,-0.0069,-0.0047
40.7,0.12,-0.0048,-0.0061,-0.0049
40.75,0.12,-0.0065,-0.0055,-0.0035
40.8,0.12,-0.0059,-0.0051,-0.006
40.85,0.12,-0.005,-0.0059,-0.0051
40.9,0.12,-0.0053,-0.0059,-0.0062
40.95,0.12,-0.0048,-0.0042,-0.0049
41,0.12,-0.0046,-0.0051,-0.0052
41.05,0.115,-0.0055,-0.0046,-0.0054
41.1,0.12,-0.0055,-0.0057,-0.0054
41.15,0.12,-0.0061,-0.0061,-0.0056
41.2,0.12,-0.0046,-0.0053,-0.0054
41.25,0.12,-0.0055,-0.0051,-0.0056
41.3,0.12,-0.0063,-0.0049,-0.0049
41.35,0.126,-0.0061,-0.0044,-0.0054
41.4,0.131,-0.0055,-0.0079,-0.0045
41.45,0.131,-0.0059,-0.0049,-0.007
41.5,0.126,-0.0069,-0.0067,-0.0068
41.55,0.131,-0.0067,-0.0067,-0.0041
41.6,0.131,-0.0069,-0.0073,-0.0037
41.65,0.131,-0.0061,-0.0042,-0.0066
41.7,0.131,-0.0069,-0.0065,-0.0066
41.75,0.131,-0.0057,-0.0049,-0.0066
41.8,0.131,-0.005,-0.0047,-0.006
41.85,0.131,-0.0065,-0.0059,-0.0054
41.9,0.131,-0.0065,-0.0067,-0.0062
41.95,0.131,-0.0063,-0.0067,-0.0064
42,0.131,-0.0063,-0.0069,-0.0068
42.05,0.131,-0.0073,-0.0067,-0.0062
42.1,0.131,-0.0067,-0.0057,-0.0068
42.15,0.131,-0.0059,-0.0065,-0.006
42.2,0.131,-0.0071,-0.0057,-0.007
42.25,0.131,-0.0088,-0.0059,-0.0076
42.3,0.131,-0.0067,-0.0073,-0.006
42.35,0.131,-0.0069,-0.0063,-0.006
42.4,0.131,-0.0075,-0.0063,-0.0068
42.45,0.131,-0.0081,-0.0055,-0.0064
42.5,0.131,-0.0075,-0.0057,-0.0045
42.55,0.131,-0.0086,-0.0067,-0.0076
42.6,0.131,-0.0079,-0.0065,-0.0056
42.65,0.126,-0.0071,-0.0051,-0.0076
42.7,0.131,-0.0067,-0.0065,-0.0066
42.75,0.131,-0.0075,-0.0075,-0.007
42.8,0.131,-0.0077,-0.0067,-0.0064
42.85,0.131,-0.0059,-0.0061,-0.0062
42.9,0.126,-0.0075,-0.0069,-0.0082
42.95,0.131,-0.0067,-0.0063,-0.0078
43,0.131,-0.0069,-0.0053,-0.008
43.05,0.131,-0.0073,-0.0073,-0.007
43.1,0.126,-0.0073,-0.0069,-0.0078
43.15,0.131,-0.0067,-0.0083,-0.0076
43.2,0.136,-0.0079,-0.0069,-0.0056
43.25,0.131,-0.0065,-0.0065,-0.0072
43.3,0.131,-0.0083,-0.0069,-0.0054
43.35,0.142,-0.0077,-0.0073,-0.0062
43.4,0.136,-0.0065,-0.0061,-0.006
43.45,0.136,-0.0071,-0.0065,-0.0047
43.5,0.142,-0.0071,-0.0075,-0.0074
43.55,0.142,-0.0067,-0.0053,-0.0068
43.6,0.142,-0.0065,-0.004,-0.0068
43.65,0.136,-0.0067,-0.0065,-0.007
43.7,0.136,-0.0061,-0.0061,-0.006
43.75,0.136,-0.0067,-0.0059,-0.0052
43.8,0.142,-0.0069,-0.0059,-0.0064
43.85,0.142,-0.0061,-0.0073,-0.0068
43.9,0.136,-0.0065,-0.0081,-0.0074
43.95,0.136,-0.0081,-0.0063,-0.0062
44,0.136,-0.0065,-0.0059,-0.006
44.05,0.142,-0.005,-0.0063,-0.0066
44.1,0.136,-0.0063,-0.0067,-0.0062
44.15,0.142,-0.0081,-0.0075,-0.0064
44.2,0.142,-0.0063,-0.0055,-0.0049
44.25,0.142,-0.0059,-0.0071,-0.0064
44.3,0.142,-0.0073,-0.0069,-0.0054
44.35,0.142,-0.0069,-0.0059,-0.0068
44.4,0.142,-0.0061,-0.0063,-0.0062
44.45,0.136,-0.0061,-0.0059,-0.0066
44.5,0.136,-0.0075,-0.0061,-0.006
44.55,0.142,-0.0067,-0.0067,-0.006
44.6,0.142,-0.0065,-0.0067,-0.0072
44.65,0.142,-0.0059,-0.0049,-0.0068
44.7,0.142,-0.0071,-0.0069,-0.0049
44.75,0.136,-0.0063,-0.0067,-0.0066
44.8,0.136,-0.0067,-0.0073,-0.0066
44.85,0.136,-0.0069,-0.0073,-0.0056
44.9,0.136,-0.0079,-0.0079,-0.0047
44.95,0.142,-0.0077,-0.0063,-0.007
45,0.147,-0.0067,-0.0059,-0.0056
45.05,0.142,-0.0073,-0.0073,-0.0054
45.1,0.147,-0.0086,-0.0067,-0.0082
45.15,0.152,-0.0069,-0.0081,-0.0072
45.2,0.147,-0.0071,-0.0071,-0.006
45.25,0.147,-0.0071,-0.0075,-0.0068
45.3,0.147,-0.0075,-0.0061,-0.0072
45.35,0.147,-0.0065,-0.0065,-0.0054
45.4,0.152,-0.0069,-0.0067,-0.007
45.45,0.152,-0.0081,-0.0067,-0.0062
45.5,0.147,-0.0075,-0.0075,-0.0083
45.55,0.147,-0.0077,-0.0077,-0.007
45.6,0.147,-0.0075,-0.0053,-0.0083
45.65,0.147,-0.0077,-0.0067,-0.0083
45.7,0.147,-0.0063,-0.0069,-0.0072
45.75,0.152,-0.0071,-0.0067,-0.0074
45.8,0.152,-0.0061,-0.0075,-0.0062
45.85,0.147,-0.0059,-0.0061,-0.0082
45.9,0.152,-0.0073,-0.0061,-0.0072
45.95,0.152,-0.0065,-0.0065,-0.0074
46,0.147,-0.0083,-0.0057,-0.0082
46.05,0.152,-0.0073,-0.0069,-0.008
46.1,0.152,-0.0083,-0.0057,-0.0066
46.15,0.152,-0.0077,-0.0075,-0.0072
46.2,0.152,-0.0077,-0.0081,-0.007
46.25,0.147,-0.0084,-0.0084,-0.0078
46.3,0.147,-0.0081,-0.0063,-0.0062
46.35,0.152,-0.0077,-0.0073,-0.0072
46.4,0.152,-0.0092,-0.0065,-0.0062
46.45,0.152,-0.0077,-0.0057,-0.0076
46.5,0.147,-0.0073,-0.0047,-0.0082
46.55,0.152,-0.0069,-0.0061,-0.0082
46.6,0.152,-0.0086,-0.0067,-0.0076
46.65,0.147,-0.0083,-0.0057,-0.0051
46.7,0.152,-0.0081,-0.0061,-0.007
46.75,0.152,-0.009,-0.0046,-0.0074
46.8,0.152,-0.0077,-0.0069,-0.0083
46.85,0.157,-0.0084,-0.0067,-0.007
46.9,0.157,-0.0075,-0.0073,-0.0068
46.95,0.157,-0.0077,-0.0059,-0.0091
47,0.157,-0.0084,-0.0075,-0.0091
47.05,0.162,-0.0083,-0.0081,-0.0076
47.1,0.157,-0.0067,-0.0073,-0.0076
47.15,0.157,-0.0075,-0.0086,-0.0089
47.2,0.157,-0.0075,-0.0067,-0.0083
47.25,0.157,-0.0075,-0.0065,-0.0076
47.3,0.157,-0.0077,-0.0086,-0.0072
47.35,0.157,-0.0081,-0.0077,-0.0083
47.4,0.157,-0.0075,-0.0075,-0.0085
47.45,0.157,-0.0079,-0.0055,-0.0082
47.5,0.157,-0.0073,-0.0073,-0.0072
47.55,0.157,-0.0073,-0.0071,-0.0085
47.6,0.157,-0.0086,-0.0075,-0.0068
47.65,0.157,-0.0088,-0.0083,-0.0074
47.7,0.162,-0.0084,-0.0077,-0.0078
47.75,0.157,-0.0084,-0.0077,-0.0093
47.8,0.162,-0.0081,-0.0073,-0.0076
47.85,0.157,-0.0071,-0.0065,-0.0076
47.9,0.157,-0.0081,-0.0075,-0.0076
47.95,0.162,-0.0079,-0.0063,-0.0083
48,0.157,-0.0077,-0.0075,-0.0066
48.05,0.157,-0.0067,-0.0075,-0.0064
48.1,0.157,-0.0083,-0.0081,-0.0066
48.15,0.157,-0.0081,-0.0061,-0.0068
48.2,0.157,-0.0073,-0.0065,-0.0068
48.25,0.157,-0.0083,-0.0067,-0.0062
48.3,0.157,-0.0081,-0.0073,-0.0082
48.35,0.162,-0.0092,-0.0077,-0.0072
48.4,0.157,-0.0067,-0.0067,-0.0087
48.45,0.157,-0.009,-0.0065,-0.0062
48.5,0.157,-0.0088,-0.0069,-0.0062
48.55,0.157,-0.009,-0.0061,-0.0085
48.6,0.157,-0.0083,-0.0063,-0.0068
48.65,0.157,-0.0088,-0.0075,-0.0083
48.7,0.157,-0.0084,-0.0083,-0.008
48.75,0.157,-0.0079,-0.0075,-0.0072
48.8,0.157,-0.0102,-0.0065,-0.0076
48.85,0.157,-0.0081,-0.0079,-0.006
48.9,0.157,-0.0075,-0.0071,-0.0066
48.95,0.157,-0.0092,-0.0061,-0.0066
49,0.162,-0.0081,-0.0075,-0.0083
49.05,0.168,-0.009,-0.0075,-0.0087
49.1,0.162,-0.0077,-0.0065,-0.0082
49.15,0.168,-0.0081,-0.0075,-0.0068
49.2,0.168,-0.0071,-0.0067,-0.0072
49.25,0.168,-0.0069,-0.0075,-0.0072
49.3,0.168,-0.0084,-0.0061,-0.0083
49.35,0.168,-0.0077,-0.0077,-0.0068
49.4,0.168,-0.0067,-0.0073,-0.006
49.45,0.173,-0.0088,-0.0083,-0.0078
49.5,0.162,-0.0075,-0.0065,-0.0085
49.55,0.168,-0.0084,-0.0081,-0.0076
49.6,0.168,-0.0079,-0.0075,-0.0068
49.65,0.168,-0.0084,-0.0073,-0.0074
49.7,0.162,-0.009,-0.0081,-0.0082
49.75,0.168,-0.0081,-0.0075,-0.0078
49.8,0.168,-0.009,-0.0059,-0.0082
49.85,0.162,-0.0081,-0.0096,-0.0078
49.9,0.168,-0.0081,-0.0088,-0.007
49.95,0.168,-0.0077,-0.0071,-0.0066
50,0.168,-0.009,-0.0071,-0.007
50.05,0.168,-0.0077,-0.0051,-0.0078
50.1,0.168,-0.009,-0.0081,-0.0083
50.15,0.168,-0.0084,-0.0067,-0.0083
50.2,0.168,-0.0083,-0.0084,-0.0087
50.25,0.168,-0.0083,-0.0075,-0.0087
50.3,0.162,-0.0077,-0.0059,-0.0085
50.35,0.168,-0.0094,-0.0063,-0.008
50.4,0.168,-0.0098,-0.0057,-0.0066
50.45,0.168,-0.01,-0.0075,-0.0083
50.5,0.168,-0.0081,-0.0081,-0.0068
50.55,0.168,-0.0098,-0.0073,-0.0062
50.6,0.168,-0.0077,-0.0065,-0.0076
50.65,0.168,-0.0084,-0.0073,-0.0083
50.7,0.168,-0.0083,-0.0073,-0.0072
50.75,0.173,-0.0088,-0.0084,-0.0068
50.8,0.168,-0.0081,-0.0071,-0.0078
50.85,0.168,-0.0079,-0.0069,-0.0082
50.9,0.173,-0.0084,-0.0065,-0.0097
50.95,0.173,-0.0092,-0.0071,-0.0093
51,0.173,-0.0067,-0.0044,-0.0076
51.05,0.173,-0.009,-0.0063,-0.0054
51.1,0.178,-0.0092,-0.0067,-0.008
51.15,0.178,-0.0088,-0.0086,-0.008
51.2,0.178,-0.0092,-0.0084,-0.0093
51.25,0.178,-0.0098,-0.009,-0.0083
51.3,0.178,-0.0081,-0.0079,-0.0091
51.35,0.178,-0.0081,-0.0077,-0.0085
51.4,0.178,-0.0084,-0.0071,-0.0085
51.45,0.178,-0.0086,-0.0088,-0.0083
51.5,0.178,-0.01,-0.0081,-0.0082
51.55,0.178,-0.0088,-0.0061,-0.0089
51.6,0.178,-0.0084,-0.0071,-0.0049
51.65,0.178,-0.0083,-0.0077,-0.0076
51.7,0.178,-0.009,-0.0086,-0.0083
51.75,0.178,-0.009,-0.0083,-0.0068
51.8,0.178,-0.0084,-0.0069,-0.0082
51.85,0.173,-0.0084,-0.0079,-0.0093
51.9,0.178,-0.0096,-0.0098,-0.0062
51.95,0.178,-0.0084,-0.0075,-0.0083
52,0.178,-0.009,-0.009,-0.008
52.05,0.178,-0.0094,-0.0086,-0.0085
52.1,0.178,-0.0084,-0.0083,-0.0085
52.15,0.178,-0.0083,-0.0088,-0.0085
52.2,0.178,-0.0079,-0.0083,-0.007
52.25,0.178,-0.0086,-0.0083,-0.0083
52.3,0.178,-0.0073,-0.0075,-0.0085
52.35,0.178,-0.0088,-0.0069,-0.0076
52.4,0.178,-0.0081,-0.0077,-0.0072
52.45,0.178,-0.0092,-0.0067,-0.0068
52.5,0.178,-0.0088,-0.0083,-0.0056
52.55,0.173,-0.0073,-0.0075,-0.0082
52.6,0.178,-0.0071,-0.0081,-0.0087
52.65,0.178,-0.0077,-0.0063,-0.0076
52.7,0.178,-0.0084,-0.0077,-0.0062
52.75,0.178,-0.0084,-0.0073,-0.0072
52.8,0.189,-0.0081,-0.0059,-0.0085
52.85,0.184,-0.0108,-0.0084,-0.0087
52.9,0.189,-0.0106,-0.0063,-0.0072
52.95,0.189,-0.009,-0.0092,-0.0074
53,0.184,-0.0084,-0.0079,-0.0097
53.05,0.189,-0.0088,-0.0092,-0.0085
53.1,0.189,-0.0096,-0.0086,-0.0097
53.15,0.189,-0.0098,-0.0067,-0.0083
53.2,0.189,-0.0098,-0.0075,-0.007
53.25,0.189,-0.0114,-0.0069,-0.0076
53.3,0.184,-0.0104,-0.0065,-0.0087
53.35,0.189,-0.0102,-0.0098,-0.0091
53.4,0.189,-0.01,-0.0083,-0.0085
53.45,0.184,-0.0086,-0.0083,-0.008
53.5,0.189,-0.0092,-0.0055,-0.0068
53.55,0.189,-0.0096,-0.0071,-0.0078
53.6,0.189,-0.009,-0.0081,-0.0083
53.65,0.189,-0.0086,-0.0081,-0.0085
53.7,0.189,-0.0083,-0.0086,-0.0082
53.75,0.189,-0.01,-0.0061,-0.0083
53.8,0.189,-0.0084,-0.0067,-0.0068
53.85,0.189,-0.009,-0.0075,-0.0066
53.9,0.189,-0.0088,-0.0086,-0.0082
53.95,0.184,-0.0083,-0.0088,-0.0083
54,0.189,-0.009,-0.0102,-0.0072
54.05,0.189,-0.0084,-0.009,-0.0076
54.1,0.184,-0.009,-0.0081,-0.0078
54.15,0.189,-0.0084,-0.0067,-0.0095
54.2,0.184,-0.0098,-0.0088,-0.0068
54.25,0.184,-0.0079,-0.0086,-0.0058
54.3,0.189,-0.0084,-0.0088,-0.0062
54.35,0.189,-0.0102,-0.0086,-0.0072
54.4,0.194,-0.0088,-0.0073,-0.0068
54.45,0.189,-0.0088,-0.0096,-0.0068
54.5,0.194,-0.0102,-0.0079,-0.0083
54.55,0.194,-0.0083,-0.0096,-0.0072
54.6,0.194,-0.009,-0.0094,-0.0091
54.65,0.2,-0.0092,-0.0081,-0.0085
54.7,0.194,-0.0102,-0.009,-0.0085
54.75,0.194,-0.01,-0.0081,-0.0085
54.8,0.2,-0.0104,-0.0079,-0.0089
54.85,0.194,-0.009,-0.0077,-0.0078
54.9,0.2,-0.0086,-0.0088,-0.0093
54.95,0.194,-0.0106,-0.0098,-0.0082
55,0.2,-0.0102,-0.0081,-0.0087
55.05,0.2,-0.0092,-0.0083,-0.0091
55.1,0.2,-0.0104,-0.0098,-0.0101
55.15,0.2,-0.0092,-0.009,-0.0091
55.2,0.194,-0.0108,-0.0092,-0.0076
55.25,0.194,-0.0106,-0.0092,-0.0089
55.3,0.2,-0.0083,-0.0086,-0.0089
55.35,0.194,-0.0092,-0.0075,-0.0078
55.4,0.2,-0.0102,-0.0094,-0.0078
55.45,0.194,-0.0102,-0.0088,-0.0085
55.5,0.194,-0.0102,-0.0073,-0.0082
55.55,0.194,-0.0098,-0.0096,-0.0083
55.6,0.2,-0.0079,-0.0084,-0.0113
55.65,0.2,-0.0096,-0.0073,-0.0083
55.7,0.2,-0.0081,-0.0075,-0.0085
55.75,0.2,-0.01,-0.009,-0.0085
55.8,0.194,-0.0098,-0.0079,-0.0091
55.85,0.2,-0.0079,-0.0094,-0.0095
55.9,0.2,-0.01,-0.0083,-0.0078
55.95,0.2,-0.0106,-0.0077,-0.0101
56,0.2,-0.0106,-0.0077,-0.0087
56.05,0.205,-0.0102,-0.0086,-0.0091
56.1,0.205,-0.0096,-0.0088,-0.0087
56.15,0.205,-0.0106,-0.01,-0.0095
56.2,0.2,-0.009,-0.0086,-0.0097
56.25,0.205,-0.0071,-0.0086,-0.0099
56.3,0.205,-0.0094,-0.009,-0.0089
56.35,0.205,-0.0104,-0.009,-0.0093
56.4,0.205,-0.0096,-0.0088,-0.0103
56.45,0.205,-0.0083,-0.0086,-0.0085
56.5,0.205,-0.0098,-0.009,-0.0097
56.55,0.205,-0.0112,-0.0106,-0.0095
56.6,0.205,-0.0102,-0.0104,-0.0095
56.65,0.205,-0.0106,-0.0071,-0.0087
56.7,0.205,-0.0108,-0.01,-0.0095
56.75,0.21,-0.0118,-0.0077,-0.0089
56.8,0.205,-0.0114,-0.0094,-0.0089
56.85,0.205,-0.0108,-0.011,-0.0089
56.9,0.205,-0.0121,-0.0088,-0.0097
56.95,0.21,-0.01,-0.0096,-0.0095
57,0.205,-0.0108,-0.0088,-0.0085
57.05,0.205,-0.0098,-0.0094,-0.0083
57.1,0.205,-0.0096,-0.0088,-0.0095
57.15,0.205,-0.0092,-0.0088,-0.0093
57.2,0.205,-0.009,-0.0094,-0.0095
57.25,0.205,-0.009,-0.0077,-0.0078
57.3,0.205,-0.009,-0.0088,-0.0076
57.35,0.21,-0.0108,-0.009,-0.0099
57.4,0.21,-0.0106,-0.0092,-0.0107
57.45,0.205,-0.0102,-0.0098,-0.0099
57.5,0.205,-0.0098,-0.0073,-0.0107
57.55,0.205,-0.0106,-0.01,-0.0076
57.6,0.205,-0.01,-0.0102,-0.0109
57.65,0.21,-0.0104,-0.009,-0.0099
57.7,0.205,-0.0106,-0.0077,-0.0095
57.75,0.205,-0.0092,-0.0092,-0.0113
57.8,0.205,-0.011,-0.0121,-0.0099
57.85,0.21,-0.0086,-0.01,-0.0103
57.9,0.21,-0.0102,-0.0104,-0.0091
57.95,0.21,-0.0092,-0.0108,-0.0107
58,0.21,-0.0104,-0.0106,-0.0107
58.05,0.215,-0.01,-0.0102,-0.0113
58.1,0.215,-0.0096,-0.0088,-0.0095
58.15,0.215,-0.0084,-0.0112,-0.0087
58.2,0.215,-0.0106,-0.0104,-0.0103
58.25,0.215,-0.009,-0.0121,-0.0101
58.3,0.215,-0.0119,-0.0106,-0.0107
58.35,0.215,-0.0106,-0.011,-0.0091
58.4,0.215,-0.01,-0.0119,-0.0087
58.45,0.215,-0.0116,-0.01,-0.0087
58.5,0.215,-0.0096,-0.009,-0.0107
58.55,0.215,-0.0084,-0.0104,-0.0103
58.6,0.215,-0.011,-0.0083,-0.0105
58.65,0.215,-0.0114,-0.0104,-0.0111
58.7,0.215,-0.0106,-0.0104,-0.0107
58.75,0.215,-0.0108,-0.0096,-0.0116
58.8,0.215,-0.0106,-0.0102,-0.0091
58.85,0.215,-0.01,-0.0104,-0.0107
58.9,0.215,-0.01,-0.0084,-0.0109
58.95,0.22,-0.0092,-0.0102,-0.0093
59,0.215,-0.0104,-0.0096,-0.0115
59.05,0.215,-0.0084,-0.0088,-0.0115
59.1,0.215,-0.0116,-0.0102,-0.0105
59.15,0.215,-0.01,-0.0102,-0.0101
59.2,0.215,-0.01,-0.0106,-0.0097
59.25,0.215,-0.0102,-0.0102,-0.0085
59.3,0.215,-0.0118,-0.0094,-0.0093
59.35,0.22,-0.0119,-0.0098,-0.0101
59.4,0.22,-0.0094,-0.0104,-0.0095
59.45,0.22,-0.0108,-0.0102,-0.0132
59.5,0.22,-0.0108,-0.0102,-0.0109
59.55,0.22,-0.0116,-0.01,-0.0115
59.6,0.226,-0.0123,-0.009,-0.0132
59.65,0.226,-0.0112,-0.0112,-0.0103
59.7,0.226,-0.0116,-0.0098,-0.0109
59.75,0.226,-0.0118,-0.0094,-0.0122
59.8,0.22,-0.0102,-0.0117,-0.0109
59.85,0.231,-0.0119,-0.0098,-0.0089
59.9,0.231,-0.0129,-0.0119,-0.0122
59.95,0.22,-0.0116,-0.0114,-0.0097
60,0.226,-0.0118,-0.0112,-0.0109
60.05,0.22,-0.0123,-0.0088,-0.0093
60.1,0.22,-0.0114,-0.0098,-0.0101
60.15,0.231,-0.0112,-0.0102,-0.0128
60.2,0.226,-0.0121,-0.0114,-0.0103
60.25,0.226,-0.0114,-0.009,-0.0111
60.3,0.226,-0.0114,-0.0114,-0.0107
60.35,0.226,-0.0121,-0.011,-0.0115
60.4,0.22,-0.0102,-0.0096,-0.0101
60.45,0.226,-0.01,-0.011,-0.0101
60.5,0.226,-0.0116,-0.0092,-0.0101
60.55,0.22,-0.0114,-0.0106,-0.0099
60.6,0.226,-0.0127,-0.0112,-0.0101
60.65,0.226,-0.0108,-0.0108,-0.0082
60.7,0.226,-0.0108,-0.0112,-0.008
60.75,0.22,-0.0108,-0.0112,-0.0087
60.8,0.22,-0.0108,-0.0088,-0.0093
60.85,0.226,-0.0104,-0.0096,-0.0107
60.9,0.226,-0.01,-0.0094,-0.0099
60.95,0.231,-0.0114,-0.0092,-0.0107
61,0.236,-0.0104,-0.009,-0.0101
61.05,0.236,-0.011,-0.0106,-0.0116
61.1,0.231,-0.0108,-0.0114,-0.0107
61.15,0.231,-0.0108,-0.0108,-0.0124
61.2,0.231,-0.0106,-0.0115,-0.0111
61.25,0.236,-0.0114,-0.0114,-0.0118
61.3,0.236,-0.0123,-0.0102,-0.0097
61.35,0.236,-0.011,-0.0104,-0.0109
61.4,0.236,-0.0102,-0.0106,-0.0101
61.45,0.236,-0.0121,-0.0108,-0.0124
61.5,0.236,-0.0112,-0.0108,-0.0105
61.55,0.236,-0.0114,-0.0108,-0.0111
61.6,0.236,-0.0108,-0.0106,-0.0091
61.65,0.236,-0.0114,-0.0125,-0.0103
61.7,0.236,-0.01,-0.0098,-0.0099
61.75,0.236,-0.0108,-0.0112,-0.0113
61.8,0.236,-0.0098,-0.0117,-0.0115
61.85,0.236,-0.0112,-0.0119,-0.0105
61.9,0.236,-0.0106,-0.0114,-0.0122
61.95,0.236,-0.0108,-0.0106,-0.0116
62,0.236,-0.0116,-0.0117,-0.0093
62.05,0.236,-0.0119,-0.0117,-0.0101
62.1,0.236,-0.0106,-0.0108,-0.0122
62.15,0.236,-0.0108,-0.0121,-0.0101
62.2,0.236,-0.0116,-0.0112,-0.0109
62.25,0.236,-0.0118,-0.0115,-0.0113
62.3,0.236,-0.0096,-0.0108,-0.0107
62.35,0.236,-0.01,-0.0125,-0.0089
62.4,0.236,-0.0102,-0.01,-0.0118
62.45,0.236,-0.0112,-0.0112,-0.0097
62.5,0.236,-0.01,-0.0119,-0.012
62.55,0.242,-0.0112,-0.0115,-0.0116
62.6,0.242,-0.0114,-0.0112,-0.0107
62.65,0.242,-0.01,-0.0108,-0.0111
62.7,0.242,-0.0114,-0.0108,-0.0101
62.75,0.242,-0.0102,-0.0098,-0.0101
62.8,0.242,-0.0123,-0.0114,-0.0116
62.85,0.242,-0.0118,-0.0131,-0.0101
62.9,0.247,-0.0108,-0.0108,-0.012
62.95,0.242,-0.0116,-0.0123,-0.0101
63,0.242,-0.0116,-0.0114,-0.0118
63.05,0.242,-0.011,-0.0121,-0.0111
63.1,0.247,-0.0116,-0.011,-0.0124
63.15,0.242,-0.0118,-0.0123,-0.0122
63.2,0.242,-0.0116,-0.0108,-0.0124
63.25,0.242,-0.0112,-0.0127,-0.012
63.3,0.247,-0.0114,-0.0117,-0.0107
63.35,0.247,-0.011,-0.0119,-0.0111
63.4,0.242,-0.0118,-0.0098,-0.0115
63.45,0.247,-0.0106,-0.0114,-0.0101
63.5,0.242,-0.0121,-0.0117,-0.0087
63.55,0.247,-0.0129,-0.0114,-0.0113
63.6,0.247,-0.0106,-0.0106,-0.0115
63.65,0.247,-0.0118,-0.0112,-0.0115
63.7,0.247,-0.0116,-0.0119,-0.0091
63.75,0.242,-0.0114,-0.011,-0.0111
63.8,0.247,-0.0116,-0.0117,-0.0115
63.85,0.247,-0.0114,-0.0106,-0.0115
63.9,0.247,-0.0127,-0.011,-0.0107
63.95,0.247,-0.0118,-0.0131,-0.0134
64,0.242,-0.0114,-0.0114,-0.012
64.05,0.242,-0.0123,-0.0129,-0.0111
64.1,0.247,-0.0116,-0.0121,-0.0103
64.15,0.247,-0.0123,-0.0117,-0.0116
64.2,0.252,-0.0118,-0.0114,-0.0115
64.25,0.252,-0.0118,-0.0119,-0.0113
64.3,0.257,-0.0114,-0.0119,-0.0115
64.35,0.257,-0.0129,-0.0114,-0.0132
64.4,0.257,-0.0121,-0.0129,-0.0107
64.45,0.257,-0.0108,-0.0114,-0.0118
64.5,0.257,-0.0112,-0.0121,-0.0107
64.55,0.252,-0.0129,-0.011,-0.0116
64.6,0.252,-0.0129,-0.0106,-0.0107
64.65,0.257,-0.0121,-0.0115,-0.0132
64.7,0.257,-0.0129,-0.0117,-0.0113
64.75,0.252,-0.0127,-0.011,-0.0118
64.8,0.252,-0.0116,-0.0104,-0.0136
64.85,0.257,-0.0121,-0.011,-0.0115
64.9,0.257,-0.0127,-0.0115,-0.0113
64.95,0.252,-0.0123,-0.0133,-0.0107
65,0.257,-0.0127,-0.0127,-0.0111
65.05,0.257,-0.0118,-0.0102,-0.0109
65.1,0.252,-0.0106,-0.0119,-0.0118
65.15,0.252,-0.0114,-0.0112,-0.0122
65.2,0.257,-0.0121,-0.0114,-0.0124
65.25,0.257,-0.0108,-0.0117,-0.0109
65.3,0.257,-0.0125,-0.0114,-0.012
65.35,0.252,-0.0123,-0.0127,-0.0118
65.4,0.257,-0.0125,-0.0123,-0.0116
65.45,0.262,-0.0116,-0.0123,-0.013
65.5,0.262,-0.0123,-0.0121,-0.0115
65.55,0.262,-0.0116,-0.0131,-0.0126
65.6,0.262,-0.0118,-0.0117,-0.0111
65.65,0.262,-0.0114,-0.0121,-0.0118
65.7,0.262,-0.0116,-0.0123,-0.012
65.75,0.262,-0.0133,-0.0145,-0.015
65.8,0.262,-0.0133,-0.0127,-0.0116
65.85,0.262,-0.0123,-0.0104,-0.0124
65.9,0.262,-0.0121,-0.0123,-0.0136
65.95,0.262,-0.0123,-0.0131,-0.0136
66,0.262,-0.0123,-0.0125,-0.0128
66.05,0.268,-0.0135,-0.0123,-0.0111
66.1,0.262,-0.0123,-0.0129,-0.013
66.15,0.262,-0.0137,-0.0119,-0.0136
66.2,0.262,-0.0139,-0.0135,-0.0122
66.25,0.262,-0.0114,-0.0133,-0.0124
66.3,0.262,-0.0118,-0.0123,-0.0101
66.35,0.262,-0.0129,-0.0121,-0.013
66.4,0.262,-0.0119,-0.0125,-0.0124
66.45,0.262,-0.0131,-0.0129,-0.0124
66.5,0.262,-0.0118,-0.0123,-0.012
66.55,0.262,-0.0118,-0.0115,-0.013
66.6,0.262,-0.0133,-0.0112,-0.012
66.65,0.262,-0.0118,-0.0133,-0.0122
66.7,0.262,-0.0131,-0.0121,-0.0115
66.75,0.262,-0.0118,-0.0145,-0.0115
66.8,0.262,-0.0151,-0.0131,-0.0109
66.85,0.262,-0.0139,-0.0131,-0.0109
66.9,0.262,-0.0129,-0.0115,-0.0126
66.95,0.273,-0.0133,-0.0133,-0.0118
67,0.273,-0.0131,-0.0145,-0.0136
67.05,0.273,-0.0131,-0.0123,-0.0124
67.1,0.273,-0.0131,-0.0151,-0.0113
67.15,0.273,-0.0133,-0.0152,-0.0116
67.2,0.273,-0.0129,-0.0135,-0.0124
67.25,0.273,-0.0119,-0.0147,-0.0118
67.3,0.273,-0.0127,-0.0129,-0.0138
67.35,0.273,-0.0123,-0.0151,-0.0136
67.4,0.273,-0.0145,-0.0125,-0.0122
67.45,0.278,-0.0137,-0.0141,-0.0132
67.5,0.278,-0.0139,-0.0143,-0.0118
67.55,0.273,-0.0129,-0.0129,-0.013
67.6,0.273,-0.0137,-0.0145,-0.013
67.65,0.273,-0.0139,-0.0143,-0.0111
67.7,0.273,-0.0143,-0.0133,-0.0116
67.75,0.273,-0.0125,-0.0149,-0.0118
67.8,0.273,-0.0129,-0.0135,-0.0134
67.85,0.273,-0.0119,-0.0133,-0.0111
67.9,0.273,-0.0131,-0.0108,-0.0103
67.95,0.273,-0.0121,-0.0129,-0.0115
68,0.278,-0.0119,-0.0135,-0.0134
68.05,0.273,-0.0139,-0.0131,-0.0124
68.1,0.273,-0.0133,-0.0129,-0.012
68.15,0.273,-0.0129,-0.0129,-0.0124
68.2,0.273,-0.0139,-0.0121,-0.013
68.25,0.278,-0.0137,-0.0121,-0.0124
68.3,0.278,-0.0137,-0.0123,-0.0122
68.35,0.284,-0.0139,-0.0133,-0.0122
68.4,0.278,-0.0141,-0.0135,-0.0118
68.45,0.284,-0.0137,-0.0147,-0.0128
68.5,0.284,-0.0135,-0.0133,-0.0138
68.55,0.278,-0.0137,-0.0149,-0.0126
68.6,0.284,-0.0141,-0.0125,-0.0144
68.65,0.284,-0.0139,-0.0129,-0.015
68.7,0.284,-0.0143,-0.0117,-0.0124
68.75,0.284,-0.0129,-0.0131,-0.0144
68.8,0.284,-0.0135,-0.0129,-0.0138
68.85,0.284,-0.0131,-0.0135,-0.0144
68.9,0.284,-0.0133,-0.0135,-0.0146
68.95,0.284,-0.0133,-0.0135,-0.0146
69,0.284,-0.0133,-0.0154,-0.0134
69.05,0.284,-0.0133,-0.0123,-0.0138
69.1,0.284,-0.0139,-0.0131,-0.013
69.15,0.284,-0.0131,-0.0129,-0.0124
69.2,0.284,-0.0129,-0.0123,-0.0138
69.25,0.284,-0.0141,-0.0143,-0.0128
69.3,0.284,-0.0116,-0.0152,-0.0134
69.35,0.284,-0.0133,-0.0143,-0.0142
69.4,0.278,-0.0145,-0.0143,-0.013
69.45,0.284,-0.0143,-0.0149,-0.0148
69.5,0.284,-0.0129,-0.0143,-0.0126
69.55,0.284,-0.0139,-0.0129,-0.0136
69.6,0.284,-0.0135,-0.0115,-0.0128
69.65,0.289,-0.0137,-0.0135,-0.0132
69.7,0.289,-0.0133,-0.0133,-0.0144
69.75,0.294,-0.0154,-0.0151,-0.0124
69.8,0.289,-0.0137,-0.0149,-0.0134
69.85,0.294,-0.0143,-0.0145,-0.0148
69.9,0.289,-0.0151,-0.0117,-0.0122
69.95,0.294,-0.0139,-0.0131,-0.015
70,0.289,-0.0143,-0.0143,-0.0138
70.05,0.289,-0.0123,-0.0133,-0.013
70.1,0.289,-0.0135,-0.0135,-0.0132
70.15,0.299,-0.0137,-0.0151,-0.0153
70.2,0.294,-0.0129,-0.0112,-0.0128
70.25,0.294,-0.0129,-0.0129,-0.0138
70.3,0.289,-0.0125,-0.0115,-0.015
70.35,0.294,-0.0116,-0.0117,-0.0148
70.4,0.294,-0.0135,-0.0152,-0.0132
70.45,0.294,-0.0133,-0.0143,-0.013
70.5,0.294,-0.0129,-0.0123,-0.013
70.55,0.294,-0.0135,-0.0133,-0.015
70.6,0.289,-0.0137,-0.0135,-0.0136
70.65,0.294,-0.0125,-0.0143,-0.013
70.7,0.289,-0.0129,-0.0125,-0.0134
70.75,0.294,-0.0141,-0.0133,-0.0132
70.8,0.294,-0.0152,-0.0143,-0.0144
70.85,0.299,-0.0143,-0.0135,-0.0132
70.9,0.299,-0.0137,-0.0133,-0.0148
70.95,0.299,-0.0143,-0.0156,-0.0132
71,0.299,-0.0158,-0.0133,-0.0144
71.05,0.299,-0.0147,-0.0143,-0.0134
71.1,0.299,-0.0141,-0.0125,-0.014
71.15,0.299,-0.0127,-0.0141,-0.0134
71.2,0.299,-0.0139,-0.0123,-0.014
71.25,0.305,-0.0133,-0.0131,-0.0142
71.3,0.299,-0.0145,-0.0141,-0.0124
71.35,0.305,-0.0141,-0.0141,-0.0138
71.4,0.299,-0.0141,-0.0156,-0.0144
71.45,0.305,-0.0145,-0.0145,-0.0144
71.5,0.305,-0.0149,-0.0129,-0.0146
71.55,0.299,-0.0137,-0.0131,-0.013
71.6,0.299,-0.0129,-0.0131,-0.0144
71.65,0.305,-0.0145,-0.0151,-0.0132
71.7,0.305,-0.0137,-0.0149,-0.0146
71.75,0.299,-0.0131,-0.0145,-0.0146
71.8,0.299,-0.0135,-0.0135,-0.0142
71.85,0.305,-0.0145,-0.0152,-0.0138
71.9,0.305,-0.0133,-0.0131,-0.0138
71.95,0.299,-0.0152,-0.0143,-0.0148
72,0.305,-0.0139,-0.0156,-0.014
72.05,0.305,-0.0129,-0.0152,-0.0144
72.1,0.305,-0.0137,-0.0143,-0.0153
72.15,0.305,-0.0143,-0.0143,-0.0144
72.2,0.31,-0.0156,-0.0143,-0.0132
72.25,0.305,-0.0143,-0.016,-0.0134
72.3,0.31,-0.0147,-0.0143,-0.014
72.35,0.31,-0.0152,-0.0147,-0.0161
72.4,0.315,-0.0139,-0.0145,-0.0136
72.45,0.31,-0.0145,-0.0145,-0.0132
72.5,0.315,-0.0149,-0.0156,-0.0155
72.55,0.31,-0.0139,-0.0156,-0.0151
72.6,0.315,-0.0145,-0.0149,-0.0144
72.65,0.315,-0.0137,-0.0151,-0.0136
72.7,0.305,-0.0152,-0.0133,-0.0136
72.75,0.315,-0.0145,-0.0149,-0.0159
72.8,0.315,-0.0149,-0.0135,-0.015
72.85,0.315,-0.0145,-0.0152,-0.0155
72.9,0.305,-0.0147,-0.0164,-0.0142
72.95,0.31,-0.0143,-0.0158,-0.015
73,0.315,-0.0154,-0.0164,-0.0138
73.05,0.31,-0.0164,-0.0141,-0.0144
73.1,0.315,-0.0149,-0.0129,-0.0155
73.15,0.31,-0.0149,-0.0145,-0.0155
73.2,0.31,-0.0152,-0.0133,-0.0155
73.25,0.31,-0.0133,-0.0129,-0.0138
73.3,0.315,-0.0149,-0.0143,-0.0146
73.35,0.315,-0.0145,-0.0145,-0.0146
73.4,0.32,-0.0162,-0.0143,-0.0155
73.45,0.32,-0.0149,-0.0143,-0.0146
73.5,0.32,-0.0141,-0.0166,-0.0144
73.55,0.32,-0.0145,-0.0135,-0.014
73.6,0.32,-0.0154,-0.0149,-0.0159
73.65,0.32,-0.0147,-0.0152,-0.0144
73.7,0.32,-0.0154,-0.0154,-0.0142
73.75,0.32,-0.0154,-0.0158,-0.0115
73.8,0.32,-0.0152,-0.0135,-0.0142
73.85,0.32,-0.0152,-0.016,-0.0169
73.9,0.326,-0.0154,-0.0147,-0.0157
73.95,0.326,-0.0137,-0.0129,-0.0155
74,0.326,-0.0149,-0.0129,-0.0165
74.05,0.326,-0.0141,-0.0123,-0.0153
74.1,0.32,-0.0137,-0.0147,-0.0153
74.15,0.32,-0.0154,-0.0135,-0.0153
74.2,0.32,-0.0166,-0.0133,-0.0155
74.25,0.326,-0.0164,-0.0129,-0.0146
74.3,0.326,-0.0158,-0.0145,-0.0151
74.35,0.326,-0.0152,-0.0149,-0.0159
74.4,0.331,-0.0154,-0.0133,-0.0159
74.45,0.326,-0.016,-0.0151,-0.0146
74.5,0.331,-0.0147,-0.0149,-0.0151
74.55,0.326,-0.0154,-0.016,-0.0165
74.6,0.326,-0.0158,-0.0151,-0.0161
74.65,0.331,-0.0151,-0.0154,-0.0146
74.7,0.331,-0.0145,-0.0145,-0.0169
74.75,0.331,-0.0149,-0.0141,-0.0144
74.8,0.331,-0.017,-0.0151,-0.015
74.85,0.326,-0.0149,-0.0152,-0.0157
74.9,0.331,-0.0152,-0.0158,-0.0175
74.95,0.331,-0.0154,-0.0145,-0.0157
75,0.331,-0.0162,-0.0145,-0.0153
75.05,0.331,-0.0152,-0.0149,-0.0151
75.1,0.331,-0.0156,-0.0152,-0.0146
75.15,0.331,-0.0151,-0.0143,-0.0148
75.2,0.331,-0.0152,-0.017,-0.0144
75.25,0.331,-0.0145,-0.0176,-0.0161
75.3,0.331,-0.0158,-0.0166,-0.015
75.35,0.326,-0.0147,-0.0133,-0.015
75.4,0.331,-0.0145,-0.0156,-0.0148
75.45,0.331,-0.0154,-0.0166,-0.0161
75.5,0.336,-0.0154,-0.0178,-0.0159
75.55,0.336,-0.0154,-0.0164,-0.0159
75.6,0.336,-0.0152,-0.018,-0.0146
75.65,0.341,-0.0152,-0.0158,-0.0169
75.7,0.341,-0.0152,-0.016,-0.0165
75.75,0.336,-0.0166,-0.0152,-0.0163
75.8,0.341,-0.0164,-0.0174,-0.0161
75.85,0.341,-0.0174,-0.016,-0.015
75.9,0.341,-0.0162,-0.0166,-0.0146
75.95,0.347,-0.0158,-0.0151,-0.0148
76,0.341,-0.0158,-0.016,-0.0146
76.05,0.347,-0.0158,-0.0154,-0.0153
76.1,0.341,-0.0176,-0.0147,-0.0157
76.15,0.341,-0.0164,-0.0151,-0.0171
76.2,0.341,-0.0156,-0.0154,-0.0165
76.25,0.341,-0.0176,-0.0166,-0.0161
76.3,0.341,-0.0162,-0.0158,-0.0142
76.35,0.341,-0.0147,-0.0168,-0.015
76.4,0.341,-0.0162,-0.0143,-0.0157
76.45,0.347,-0.0162,-0.0166,-0.0146
76.5,0.347,-0.017,-0.016,-0.0157
76.55,0.352,-0.0152,-0.0129,-0.0169
76.6,0.352,-0.0154,-0.0176,-0.0159
76.65,0.352,-0.0152,-0.0151,-0.0155
76.7,0.347,-0.0154,-0.0156,-0.0173
76.75,0.347,-0.0162,-0.0154,-0.015
76.8,0.352,-0.0162,-0.0156,-0.0134
76.85,0.347,-0.0154,-0.0151,-0.0153
76.9,0.352,-0.017,-0.0147,-0.0167
76.95,0.352,-0.0145,-0.016,-0.0161
77,0.352,-0.0164,-0.0168,-0.0163
77.05,0.357,-0.018,-0.0158,-0.0161
77.1,0.352,-0.0168,-0.0183,-0.0161
77.15,0.352,-0.017,-0.017,-0.0153
77.2,0.352,-0.0174,-0.0166,-0.0167
77.25,0.352,-0.0166,-0.016,-0.0159
77.3,0.357,-0.0164,-0.0154,-0.0163
77.35,0.357,-0.0168,-0.0158,-0.0171
77.4,0.357,-0.0176,-0.0156,-0.0167
77.45,0.362,-0.016,-0.0154,-0.0155
77.5,0.362,-0.0176,-0.016,-0.0155
77.55,0.362,-0.0174,-0.0174,-0.0148
77.6,0.362,-0.0168,-0.0162,-0.0169
77.65,0.362,-0.017,-0.0164,-0.0161
77.7,0.362,-0.017,-0.0166,-0.0171
77.75,0.362,-0.0166,-0.0166,-0.0173
77.8,0.362,-0.017,-0.0166,-0.0175
77.85,0.362,-0.0154,-0.0168,-0.0167
77.9,0.368,-0.0162,-0.0164,-0.0175
77.95,0.357,-0.0172,-0.016,-0.0163
78,0.362,-0.0162,-0.0156,-0.0155
78.05,0.362,-0.0164,-0.0166,-0.0171
78.1,0.362,-0.0174,-0.0176,-0.0171
78.15,0.362,-0.018,-0.0178,-0.0177
78.2,0.362,-0.0178,-0.0156,-0.0151
78.25,0.368,-0.0174,-0.0156,-0.0179
78.3,0.368,-0.018,-0.016,-0.0175
78.35,0.368,-0.0164,-0.0164,-0.0177
78.4,0.368,-0.0152,-0.0178,-0.0165
78.45,0.368,-0.018,-0.0176,-0.0175
78.5,0.368,-0.0166,-0.0166,-0.0161
78.55,0.373,-0.018,-0.0162,-0.0161
78.6,0.373,-0.0174,-0.0191,-0.0181
78.65,0.373,-0.017,-0.0189,-0.0171
78.7,0.368,-0.0158,-0.0178,-0.0175
78.75,0.368,-0.0183,-0.0172,-0.0171
78.8,0.368,-0.0185,-0.0174,-0.0155
78.85,0.368,-0.0176,-0.0176,-0.0163
78.9,0.373,-0.0185,-0.0176,-0.0159
78.95,0.368,-0.0174,-0.0185,-0.0153
79,0.368,-0.0164,-0.0168,-0.0155
79.05,0.373,-0.0162,-0.0187,-0.0165
79.1,0.368,-0.0174,-0.0197,-0.0175
79.15,0.368,-0.0176,-0.0154,-0.0175
79.2,0.368,-0.0183,-0.018,-0.0192
79.25,0.373,-0.0174,-0.0185,-0.0165
79.3,0.378,-0.017,-0.0176,-0.0182
79.35,0.378,-0.0197,-0.0174,-0.0169
79.4,0.383,-0.0176,-0.0189,-0.0182
79.45,0.378,-0.018,-0.0168,-0.0179
79.5,0.383,-0.018,-0.0193,-0.0181
79.55,0.378,-0.0166,-0.018,-0.0179
79.6,0.378,-0.018,-0.0185,-0.0194
79.65,0.378,-0.0183,-0.017,-0.0188
79.7,0.383,-0.0178,-0.0185,-0.0177
79.75,0.378,-0.0164,-0.0178,-0.0181
79.8,0.378,-0.0178,-0.0183,-0.0173
79.85,0.383,-0.0178,-0.0178,-0.0181
79.9,0.378,-0.0178,-0.0176,-0.0163
79.95,0.383,-0.0183,-0.0193,-0.0171
80,0.383,-0.018,-0.0176,-0.0177
80.05,0.383,-0.0182,-0.018,-0.0163
80.1,0.383,-0.0183,-0.018,-0.0188
80.15,0.383,-0.0185,-0.0189,-0.019
80.2,0.383,-0.0191,-0.0164,-0.0165
80.25,0.383,-0.017,-0.0197,-0.0177
80.3,0.389,-0.0183,-0.0183,-0.0169
80.35,0.389,-0.0191,-0.0166,-0.0194
80.4,0.389,-0.0193,-0.0185,-0.0186
80.45,0.389,-0.0187,-0.0185,-0.0171
80.5,0.394,-0.0191,-0.0191,-0.019
80.55,0.389,-0.0189,-0.0172,-0.0194
80.6,0.389,-0.0176,-0.0187,-0.02
80.65,0.389,-0.0187,-0.0183,-0.0194
80.7,0.389,-0.0187,-0.0189,-0.0186
80.75,0.389,-0.0201,-0.0178,-0.0186
80.8,0.389,-0.0199,-0.0176,-0.0175
80.85,0.389,-0.0189,-0.0178,-0.0179
80.9,0.394,-0.018,-0.0182,-0.0169
80.95,0.389,-0.0178,-0.0195,-0.0153
81,0.389,-0.0187,-0.0189,-0.0171
81.05,0.389,-0.0189,-0.0176,-0.0161
81.1,0.394,-0.0191,-0.0162,-0.0182
81.15,0.394,-0.018,-0.018,-0.0177
81.2,0.394,-0.0187,-0.0197,-0.0169
81.25,0.399,-0.018,-0.0174,-0.0177
81.3,0.399,-0.0189,-0.018,-0.0194
81.35,0.399,-0.0189,-0.0185,-0.0182
81.4,0.399,-0.0187,-0.0191,-0.0179
81.45,0.399,-0.0201,-0.0191,-0.0175
81.5,0.399,-0.0183,-0.0182,-0.0184
81.55,0.399,-0.0191,-0.0174,-0.0186
81.6,0.399,-0.0189,-0.0191,-0.0184
81.65,0.399,-0.0182,-0.0197,-0.0165
81.7,0.399,-0.0199,-0.0195,-0.019
81.75,0.399,-0.0211,-0.0207,-0.0165
81.8,0.399,-0.0193,-0.0201,-0.0179
81.85,0.399,-0.0191,-0.0197,-0.0181
81.9,0.399,-0.0191,-0.0189,-0.0182
81.95,0.399,-0.0189,-0.0191,-0.0173
82,0.399,-0.0195,-0.0203,-0.0184
82.05,0.399,-0.0193,-0.0174,-0.0186
82.1,0.399,-0.018,-0.0201,-0.02
82.15,0.399,-0.0191,-0.0185,-0.0163
82.2,0.405,-0.0191,-0.0197,-0.0186
82.25,0.405,-0.0189,-0.0205,-0.0179
82.3,0.405,-0.0201,-0.0185,-0.0179
82.35,0.405,-0.0199,-0.0193,-0.0179
82.4,0.405,-0.0195,-0.0191,-0.0171
82.45,0.405,-0.0195,-0.0201,-0.0198
82.5,0.41,-0.0191,-0.0195,-0.0192
82.55,0.41,-0.0207,-0.0191,-0.019
82.6,0.41,-0.0199,-0.0193,-0.0181
82.65,0.405,-0.0195,-0.0185,-0.0181
82.7,0.41,-0.0193,-0.0191,-0.0177
82.75,0.41,-0.0207,-0.0195,-0.0175
82.8,0.41,-0.0187,-0.0185,-0.0181
82.85,0.405,-0.0199,-0.0193,-0.0194
82.9,0.41,-0.0199,-0.0187,-0.0181
82.95,0.41,-0.0176,-0.0189,-0.0186
83,0.41,-0.0201,-0.0197,-0.0179
83.05,0.41,-0.0199,-0.0197,-0.0194
83.1,0.41,-0.0191,-0.0203,-0.0186
83.15,0.415,-0.0176,-0.0197,-0.0204
83.2,0.41,-0.0199,-0.0207,-0.019
83.25,0.415,-0.0197,-0.0205,-0.0194
83.3,0.415,-0.0172,-0.0197,-0.019
83.35,0.42,-0.0199,-0.0205,-0.0194
83.4,0.415,-0.0189,-0.0191,-0.02
83.45,0.42,-0.0199,-0.0222,-0.0194
83.5,0.415,-0.0201,-0.0199,-0.0208
83.55,0.42,-0.0205,-0.0217,-0.0186
83.6,0.42,-0.0183,-0.0201,-0.019
83.65,0.415,-0.0197,-0.0213,-0.0194
83.7,0.415,-0.0195,-0.0211,-0.0181
83.75,0.42,-0.0185,-0.0189,-0.0181
83.8,0.42,-0.0195,-0.0207,-0.0192
83.85,0.42,-0.0205,-0.0209,-0.0192
83.9,0.415,-0.0185,-0.0205,-0.0192
83.95,0.415,-0.0205,-0.0207,-0.0173
84,0.425,-0.0195,-0.0197,-0.0182
84.05,0.415,-0.0203,-0.0211,-0.0196
84.1,0.415,-0.0195,-0.0205,-0.0194
84.15,0.42,-0.0191,-0.0215,-0.0188
84.2,0.42,-0.0211,-0.0191,-0.0181
84.25,0.425,-0.0195,-0.0195,-0.0186
84.3,0.425,-0.0183,-0.0213,-0.0179
84.35,0.425,-0.0218,-0.0207,-0.0173
84.4,0.431,-0.0201,-0.0205,-0.0177
84.45,0.431,-0.0201,-0.0207,-0.0184
84.5,0.425,-0.0199,-0.0201,-0.0181
84.55,0.431,-0.0201,-0.0189,-0.02
84.6,0.431,-0.0197,-0.0199,-0.0192
84.65,0.431,-0.0201,-0.0197,-0.0196
84.7,0.425,-0.0191,-0.0193,-0.0186
84.75,0.431,-0.0185,-0.0187,-0.0202
84.8,0.431,-0.0207,-0.0199,-0.0169
84.85,0.431,-0.0195,-0.0197,-0.02
84.9,0.431,-0.0209,-0.0211,-0.0186
84.95,0.431,-0.0195,-0.0207,-0.0188
85,0.431,-0.0205,-0.0215,-0.019
85.05,0.431,-0.0201,-0.0197,-0.0192
85.1,0.431,-0.0205,-0.0215,-0.0194
85.15,0.425,-0.0203,-0.0209,-0.0194
85.2,0.431,-0.0203,-0.0211,-0.0198
85.25,0.431,-0.0199,-0.0213,-0.0196
85.3,0.436,-0.0205,-0.0197,-0.0184
85.35,0.431,-0.0214,-0.0217,-0.0196
85.4,0.441,-0.0207,-0.0213,-0.0186
85.45,0.436,-0.0203,-0.0213,-0.0192
85.5,0.436,-0.0201,-0.023,-0.02
85.55,0.436,-0.0207,-0.0207,-0.0171
85.6,0.441,-0.0205,-0.0207,-0.0202
85.65,0.436,-0.0201,-0.0205,-0.0192
85.7,0.441,-0.0201,-0.0201,-0.019
85.75,0.441,-0.0207,-0.0226,-0.0206
85.8,0.436,-0.0222,-0.0207,-0.0192
85.85,0.436,-0.0201,-0.0203,-0.0196
85.9,0.436,-0.0203,-0.022,-0.0202
85.95,0.441,-0.0199,-0.022,-0.0215
86,0.436,-0.0214,-0.0213,-0.0198
86.05,0.441,-0.0211,-0.0219,-0.0196
86.1,0.441,-0.0203,-0.0199,-0.0208
86.15,0.441,-0.0205,-0.0199,-0.0208
86.2,0.441,-0.0207,-0.0215,-0.0217
86.25,0.447,-0.0213,-0.0205,-0.0208
86.3,0.447,-0.0213,-0.0211,-0.0206
86.35,0.447,-0.0209,-0.0209,-0.0202
86.4,0.452,-0.0211,-0.0213,-0.02
86.45,0.447,-0.0189,-0.0236,-0.0181
86.5,0.447,-0.0214,-0.0215,-0.0212
86.55,0.452,-0.0201,-0.0213,-0.0186
86.6,0.447,-0.0211,-0.0213,-0.0208
86.65,0.452,-0.0211,-0.0213,-0.02
86.7,0.447,-0.0183,-0.0222,-0.021
86.75,0.447,-0.0205,-0.0215,-0.02
86.8,0.447,-0.0211,-0.0203,-0.0208
86.85,0.447,-0.0199,-0.0209,-0.0204
86.9,0.447,-0.0203,-0.0217,-0.021
86.95,0.447,-0.0213,-0.0211,-0.0192
87,0.447,-0.0211,-0.0219,-0.0206
87.05,0.452,-0.0214,-0.0213,-0.0194
87.1,0.452,-0.0222,-0.0215,-0.0206
87.15,0.447,-0.0205,-0.0197,-0.02
87.2,0.452,-0.0216,-0.0203,-0.0208
87.25,0.452,-0.0214,-0.0211,-0.0208
87.3,0.452,-0.0211,-0.0232,-0.0217
87.35,0.457,-0.0209,-0.023,-0.0212
87.4,0.452,-0.0222,-0.0213,-0.0192
87.45,0.452,-0.0216,-0.023,-0.0192
87.5,0.457,-0.0224,-0.0222,-0.0212
87.55,0.457,-0.0224,-0.0226,-0.0194
87.6,0.452,-0.0211,-0.0226,-0.0217
87.65,0.452,-0.0222,-0.0226,-0.0221
87.7,0.457,-0.0224,-0.0209,-0.0221
87.75,0.457,-0.022,-0.0226,-0.0215
87.8,0.452,-0.0226,-0.023,-0.0221
87.85,0.457,-0.0224,-0.0226,-0.0212
87.9,0.452,-0.022,-0.0211,-0.0215
87.95,0.457,-0.0224,-0.022,-0.0196
88,0.457,-0.0218,-0.0209,-0.0208
88.05,0.452,-0.0214,-0.0215,-0.0206
88.1,0.457,-0.0209,-0.0234,-0.0215
88.15,0.457,-0.022,-0.0197,-0.0208
88.2,0.457,-0.0222,-0.0211,-0.0212
88.25,0.452,-0.0209,-0.0238,-0.0212
88.3,0.457,-0.0214,-0.022,-0.0225
88.35,0.462,-0.0213,-0.0234,-0.0202
88.4,0.462,-0.0211,-0.0224,-0.0214
88.45,0.462,-0.0214,-0.0219,-0.0208
88.5,0.468,-0.0222,-0.022,-0.0202
88.55,0.462,-0.0203,-0.0217,-0.0212
88.6,0.468,-0.0214,-0.0215,-0.0221
88.65,0.468,-0.0207,-0.023,-0.0212
88.7,0.462,-0.0214,-0.0222,-0.0215
88.75,0.468,-0.0222,-0.0217,-0.0217
88.8,0.468,-0.022,-0.0238,-0.0214
88.85,0.468,-0.0205,-0.0234,-0.0217
88.9,0.462,-0.023,-0.023,-0.0212
88.95,0.468,-0.0216,-0.022,-0.0223
89,0.468,-0.0214,-0.0226,-0.0217
89.05,0.468,-0.0214,-0.0211,-0.0215
89.1,0.468,-0.0209,-0.0215,-0.0225
89.15,0.468,-0.022,-0.0217,-0.021
89.2,0.468,-0.0222,-0.0222,-0.0231
89.25,0.468,-0.022,-0.0224,-0.0206
89.3,0.468,-0.0218,-0.0222,-0.0196
89.35,0.473,-0.0224,-0.0211,-0.0217
89.4,0.468,-0.022,-0.0217,-0.0212
89.45,0.473,-0.0232,-0.0226,-0.0235
89.5,0.473,-0.0218,-0.0232,-0.0235
89.55,0.473,-0.0224,-0.0226,-0.0212
89.6,0.478,-0.0224,-0.0224,-0.0202
89.65,0.478,-0.0232,-0.0228,-0.0221
89.7,0.478,-0.0211,-0.023,-0.0225
89.75,0.473,-0.0205,-0.0246,-0.0208
89.8,0.473,-0.0222,-0.023,-0.02
89.85,0.478,-0.022,-0.0217,-0.0194
89.9,0.473,-0.0234,-0.023,-0.0217
89.95,0.473,-0.0214,-0.0219,-0.0214
90,0.473,-0.0222,-0.0246,-0.02
90.05,0.478,-0.0236,-0.0232,-0.0206
90.1,0.478,-0.0228,-0.0215,-0.0196
90.15,0.473,-0.022,-0.0242,-0.0196
90.2,0.478,-0.023,-0.023,-0.0212
90.25,0.478,-0.0224,-0.0215,-0.0225
90.3,0.483,-0.023,-0.0238,-0.0227
90.35,0.483,-0.0216,-0.023,-0.0212
90.4,0.483,-0.0216,-0.024,-0.0212
90.45,0.483,-0.022,-0.0236,-0.0225
90.5,0.483,-0.0209,-0.0251,-0.0208
90.55,0.489,-0.0214,-0.0248,-0.0221
90.6,0.489,-0.023,-0.0232,-0.0231
90.65,0.489,-0.0218,-0.0226,-0.0214
90.7,0.489,-0.0224,-0.0248,-0.0212
90.75,0.489,-0.0214,-0.0232,-0.0221
90.8,0.489,-0.0224,-0.0224,-0.0221
90.85,0.489,-0.0216,-0.0248,-0.021
90.9,0.489,-0.0228,-0.0244,-0.02
90.95,0.489,-0.0232,-0.023,-0.0215
91,0.489,-0.0232,-0.0228,-0.0208
91.05,0.489,-0.0213,-0.0226,-0.0217
91.1,0.489,-0.0211,-0.023,-0.0194
91.15,0.489,-0.022,-0.0232,-0.0192
91.2,0.489,-0.0218,-0.0228,-0.021
91.25,0.489,-0.0218,-0.0238,-0.0237
91.3,0.494,-0.0218,-0.0236,-0.0215
91.35,0.494,-0.0236,-0.0244,-0.0192
91.4,0.494,-0.0244,-0.023,-0.0215
91.45,0.494,-0.0226,-0.0219,-0.0212
91.5,0.494,-0.0224,-0.0228,-0.0225
91.55,0.494,-0.0228,-0.0219,-0.0217
91.6,0.494,-0.022,-0.0236,-0.0217
91.65,0.494,-0.0226,-0.0238,-0.0223
91.7,0.494,-0.0226,-0.0236,-0.0217
91.75,0.499,-0.0242,-0.0251,-0.0215
91.8,0.494,-0.0234,-0.022,-0.0208
91.85,0.494,-0.0226,-0.0234,-0.0215
91.9,0.494,-0.0236,-0.0246,-0.0217
91.95,0.494,-0.0234,-0.0228,-0.0231
92,0.494,-0.0244,-0.0232,-0.02
92.05,0.494,-0.0232,-0.0217,-0.0212
92.1,0.494,-0.0205,-0.0236,-0.0225
92.15,0.494,-0.0226,-0.0222,-0.0229
92.2,0.494,-0.022,-0.0244,-0.0225
92.25,0.499,-0.023,-0.024,-0.0219
92.3,0.499,-0.0226,-0.023,-0.0223
92.35,0.505,-0.0222,-0.0246,-0.0227
92.4,0.505,-0.024,-0.0226,-0.0215
92.45,0.505,-0.0228,-0.0253,-0.0208
92.5,0.505,-0.0242,-0.0246,-0.0219
92.55,0.505,-0.0242,-0.025,-0.0221
92.6,0.51,-0.0246,-0.0244,-0.0208
92.65,0.505,-0.0244,-0.023,-0.0196
92.7,0.505,-0.022,-0.0257,-0.0227
92.75,0.505,-0.0224,-0.0244,-0.0223
92.8,0.505,-0.0236,-0.0224,-0.0217
92.85,0.505,-0.023,-0.0232,-0.021
92.9,0.499,-0.0232,-0.0234,-0.0217
92.95,0.505,-0.0224,-0.0255,-0.0233
93,0.505,-0.0211,-0.023,-0.0223
93.05,0.505,-0.0226,-0.024,-0.0217
93.1,0.499,-0.0226,-0.0248,-0.021
93.15,0.505,-0.0246,-0.0226,-0.0206
93.2,0.505,-0.0216,-0.0224,-0.0202
93.25,0.51,-0.0232,-0.0246,-0.0204
93.3,0.515,-0.0232,-0.0246,-0.0208
93.35,0.515,-0.0224,-0.0253,-0.0217
93.4,0.515,-0.022,-0.0238,-0.021
93.45,0.515,-0.0224,-0.0253,-0.0217
93.5,0.515,-0.0247,-0.0253,-0.0217
93.55,0.515,-0.0247,-0.0257,-0.0217
93.6,0.515,-0.0236,-0.0228,-0.0212
93.65,0.515,-0.022,-0.0248,-0.0221
93.7,0.515,-0.0232,-0.0248,-0.0231
93.75,0.515,-0.0236,-0.025,-0.0233
93.8,0.515,-0.0244,-0.0261,-0.0237
93.85,0.515,-0.0249,-0.0251,-0.0231
93.9,0.515,-0.0234,-0.0253,-0.0239
93.95,0.515,-0.0228,-0.0244,-0.0219
94,0.515,-0.023,-0.0248,-0.0219
94.05,0.515,-0.0251,-0.0267,-0.0219
94.1,0.515,-0.023,-0.0251,-0.0233
94.15,0.515,-0.0232,-0.0257,-0.0221
94.2,0.515,-0.023,-0.0253,-0.0233
94.25,0.515,-0.0234,-0.0244,-0.0229
94.3,0.52,-0.0247,-0.0257,-0.0223
94.35,0.525,-0.0242,-0.0259,-0.0231
94.4,0.525,-0.0253,-0.0257,-0.0243
94.45,0.525,-0.0246,-0.0263,-0.0231
94.5,0.525,-0.0232,-0.0242,-0.0239
94.55,0.52,-0.0249,-0.0263,-0.0231
94.6,0.525,-0.0246,-0.0269,-0.0217
94.65,0.525,-0.0249,-0.024,-0.0239
94.7,0.525,-0.0253,-0.0257,-0.0243
94.75,0.525,-0.0247,-0.0257,-0.0225
94.8,0.525,-0.0251,-0.0259,-0.0243
94.85,0.525,-0.0236,-0.0255,-0.0249
94.9,0.525,-0.0255,-0.025,-0.0225
94.95,0.52,-0.0253,-0.0259,-0.0231
95,0.525,-0.0251,-0.0253,-0.0231
95.05,0.525,-0.0249,-0.0246,-0.0239
95.1,0.525,-0.0261,-0.0248,-0.0243
95.15,0.525,-0.0236,-0.0257,-0.026
95.2,0.525,-0.0232,-0.0267,-0.0254
95.25,0.541,-0.0249,-0.0269,-0.0217
95.3,0.536,-0.0246,-0.0253,-0.0243
95.35,0.541,-0.0249,-0.0244,-0.0233
95.4,0.541,-0.0242,-0.0253,-0.0233
95.45,0.541,-0.0232,-0.0253,-0.0212
95.5,0.541,-0.0247,-0.0248,-0.0239
95.55,0.541,-0.0253,-0.025,-0.0243
95.6,0.541,-0.0251,-0.0253,-0.0254
95.65,0.541,-0.0251,-0.025,-0.0221
95.7,0.541,-0.0251,-0.0259,-0.0245
95.75,0.541,-0.0242,-0.0261,-0.0227
95.8,0.541,-0.0247,-0.0261,-0.0252
95.85,0.541,-0.0251,-0.0253,-0.0245
95.9,0.547,-0.0247,-0.0257,-0.0231
95.95,0.541,-0.0257,-0.0251,-0.0247
96,0.547,-0.0224,-0.025,-0.0247
96.05,0.541,-0.0255,-0.025,-0.0249
96.1,0.541,-0.0238,-0.0269,-0.0237
96.15,0.547,-0.0257,-0.0246,-0.0254
96.2,0.541,-0.0247,-0.0253,-0.0231
96.25,0.547,-0.0249,-0.0257,-0.0233
96.3,0.552,-0.0246,-0.0269,-0.0237
96.35,0.552,-0.0246,-0.0259,-0.0266
96.4,0.552,-0.0253,-0.025,-0.0243
96.45,0.552,-0.0249,-0.0257,-0.0247
96.5,0.552,-0.0259,-0.0253,-0.0249
96.55,0.552,-0.0251,-0.0271,-0.0254
96.6,0.552,-0.0257,-0.0259,-0.0254
96.65,0.552,-0.0259,-0.0244,-0.0235
96.7,0.557,-0.0249,-0.0255,-0.0231
96.75,0.552,-0.0246,-0.0238,-0.0247
96.8,0.552,-0.0249,-0.0253,-0.0237
96.85,0.552,-0.0253,-0.0263,-0.0231
96.9,0.557,-0.0244,-0.0255,-0.0231
96.95,0.552,-0.0246,-0.0246,-0.0247
97,0.552,-0.0234,-0.0271,-0.0245
97.05,0.557,-0.0244,-0.0251,-0.025
97.1,0.557,-0.0259,-0.024,-0.0237
97.15,0.557,-0.0255,-0.0259,-0.0258
97.2,0.562,-0.0261,-0.0246,-0.0264
97.25,0.562,-0.0257,-0.0259,-0.0237
97.3,0.567,-0.0269,-0.0244,-0.0264
97.35,0.557,-0.0269,-0.0253,-0.0249
97.4,0.562,-0.0249,-0.0257,-0.0274
97.45,0.562,-0.0265,-0.0265,-0.0231
97.5,0.562,-0.0267,-0.0273,-0.0262
97.55,0.562,-0.0261,-0.0238,-0.0272
97.6,0.562,-0.0269,-0.0265,-0.0262
97.65,0.567,-0.0259,-0.0273,-0.0245
97.7,0.567,-0.0259,-0.0271,-0.0254
97.75,0.562,-0.0242,-0.0259,-0.0254
97.8,0.562,-0.0259,-0.0257,-0.0233
97.85,0.567,-0.0259,-0.0261,-0.0264
97.9,0.562,-0.0253,-0.0267,-0.0243
97.95,0.567,-0.0261,-0.0253,-0.0264
98,0.562,-0.0263,-0.0263,-0.0262
98.05,0.562,-0.0271,-0.0273,-0.0245
98.1,0.562,-0.0263,-0.0248,-0.0272
98.15,0.567,-0.0253,-0.0273,-0.0262
98.2,0.567,-0.0267,-0.0273,-0.0243
98.25,0.567,-0.0269,-0.0259,-0.0268
98.3,0.573,-0.0259,-0.0275,-0.0245
98.35,0.573,-0.0263,-0.0261,-0.027
98.4,0.573,-0.0255,-0.0275,-0.0266
98.45,0.573,-0.0269,-0.0269,-0.027
98.5,0.573,-0.0275,-0.0265,-0.0262
98.55,0.573,-0.0269,-0.0273,-0.0272
98.6,0.573,-0.0259,-0.0263,-0.0266
98.65,0.573,-0.0261,-0.0251,-0.0247
98.7,0.573,-0.0261,-0.0273,-0.0245
98.75,0.567,-0.0261,-0.0269,-0.0254
98.8,0.573,-0.0263,-0.0273,-0.0245
98.85,0.573,-0.0257,-0.0259,-0.025
98.9,0.573,-0.0263,-0.0257,-0.025
98.95,0.573,-0.0273,-0.0277,-0.0268
99,0.573,-0.0267,-0.0279,-0.0254
99.05,0.573,-0.0265,-0.0269,-0.0254
99.1,0.573,-0.0269,-0.0273,-0.0241
99.15,0.573,-0.0265,-0.0283,-0.0252
99.2,0.578,-0.0267,-0.0273,-0.0266
99.25,0.578,-0.0265,-0.0253,-0.026
99.3,0.578,-0.0267,-0.0273,-0.0262
99.35,0.578,-0.0257,-0.0273,-0.0247
99.4,0.583,-0.0275,-0.0275,-0.027
99.45,0.583,-0.0279,-0.0269,-0.0252
99.5,0.578,-0.0263,-0.0269,-0.0258
99.55,0.583,-0.0263,-0.0257,-0.0262
99.6,0.578,-0.0275,-0.0277,-0.0272
99.65,0.583,-0.0277,-0.0267,-0.0254
99.7,0.578,-0.0271,-0.0288,-0.027
99.75,0.583,-0.0277,-0.0279,-0.0254
99.8,0.583,-0.0277,-0.0275,-0.0276
99.85,0.583,-0.0279,-0.0267,-0.0254
99.9,0.578,-0.0263,-0.0275,-0.0233
99.95,0.583,-0.0279,-0.0257,-0.0272
100,0.578,-0.0275,-0.0285,-0.028
100.05,0.583,-0.0279,-0.0261,-0.0283
100.1,0.583,-0.0277,-0.0263,-0.0249
100.15,0.589,-0.0271,-0.0269,-0.0272
100.2,0.589,-0.0281,-0.0275,-0.0264
100.25,0.589,-0.0282,-0.0265,-0.0268
100.3,0.589,-0.0277,-0.0269,-0.027
100.35,0.594,-0.0273,-0.0271,-0.0283
100.4,0.594,-0.029,-0.0269,-0.0268
100.45,0.594,-0.0273,-0.0248,-0.0274
100.5,0.594,-0.0277,-0.0267,-0.0278
100.55,0.594,-0.0281,-0.0288,-0.027
100.6,0.594,-0.0267,-0.0261,-0.0262
100.65,0.594,-0.0279,-0.0263,-0.0264
100.7,0.594,-0.0271,-0.0261,-0.026
100.75,0.594,-0.0271,-0.0269,-0.0272
100.8,0.594,-0.0284,-0.0277,-0.0249
100.85,0.594,-0.0261,-0.0277,-0.0264
100.9,0.594,-0.0286,-0.0281,-0.025
100.95,0.594,-0.0279,-0.0273,-0.0262
101,0.594,-0.0281,-0.0285,-0.027
101.05,0.594,-0.0273,-0.0285,-0.026
101.1,0.594,-0.0286,-0.029,-0.0264
101.15,0.594,-0.0269,-0.0285,-0.0252
101.2,0.594,-0.0265,-0.0273,-0.027
101.25,0.599,-0.0298,-0.0275,-0.0276
101.3,0.599,-0.0288,-0.0285,-0.026
101.35,0.599,-0.0288,-0.0277,-0.027
101.4,0.599,-0.0267,-0.0267,-0.0266
101.45,0.599,-0.0282,-0.0275,-0.0276
101.5,0.599,-0.0286,-0.0273,-0.0287
101.55,0.599,-0.0286,-0.0288,-0.0254
101.6,0.599,-0.029,-0.0285,-0.0283
101.65,0.599,-0.0294,-0.0283,-0.0272
101.7,0.599,-0.0281,-0.0277,-0.0276
101.75,0.599,-0.0273,-0.0277,-0.027
101.8,0.599,-0.0281,-0.0273,-0.0264
101.85,0.604,-0.0281,-0.0285,-0.0283
101.9,0.599,-0.0277,-0.0275,-0.0264
101.95,0.604,-0.0279,-0.0279,-0.0283
102,0.599,-0.0279,-0.0283,-0.0272
102.05,0.599,-0.0277,-0.0288,-0.0287
102.1,0.604,-0.0288,-0.0265,-0.0283
102.15,0.599,-0.0286,-0.0265,-0.0293
102.2,0.599,-0.0267,-0.0283,-0.028
102.25,0.604,-0.0265,-0.0275,-0.0264
102.3,0.599,-0.0282,-0.0265,-0.0285
102.35,0.609,-0.0282,-0.0269,-0.0285
102.4,0.609,-0.0279,-0.0296,-0.027
102.45,0.609,-0.0284,-0.0279,-0.0289
102.5,0.609,-0.0282,-0.0275,-0.0276
102.55,0.615,-0.0281,-0.0267,-0.028
102.6,0.609,-0.0281,-0.0288,-0.0274
102.65,0.609,-0.0282,-0.0275,-0.0283
102.7,0.609,-0.0286,-0.0281,-0.027
102.75,0.615,-0.0279,-0.0273,-0.0268
102.8,0.609,-0.0294,-0.0269,-0.0252
102.85,0.609,-0.0269,-0.0285,-0.0252
102.9,0.615,-0.0279,-0.0281,-0.027
102.95,0.609,-0.0292,-0.0271,-0.027
103,0.615,-0.0271,-0.0298,-0.0262
103.05,0.615,-0.0288,-0.0286,-0.028
103.1,0.615,-0.0284,-0.0267,-0.028
103.15,0.609,-0.0288,-0.0279,-0.0293
103.2,0.615,-0.0286,-0.0285,-0.0283
103.25,0.615,-0.0292,-0.029,-0.0278
103.3,0.615,-0.0279,-0.029,-0.0272
103.35,0.615,-0.0286,-0.0285,-0.028
103.4,0.62,-0.0302,-0.0273,-0.0276
103.45,0.62,-0.0271,-0.0294,-0.0283
103.5,0.62,-0.0288,-0.0288,-0.0264
103.55,0.62,-0.0286,-0.0275,-0.027
103.6,0.62,-0.0286,-0.0283,-0.0293
103.65,0.62,-0.0286,-0.0285,-0.0293
103.7,0.62,-0.0282,-0.0281,-0.0262
103.75,0.62,-0.0294,-0.0288,-0.0276
103.8,0.62,-0.0294,-0.0279,-0.0287
103.85,0.615,-0.03,-0.0286,-0.0268
103.9,0.62,-0.0286,-0.0285,-0.027
103.95,0.62,-0.0296,-0.0285,-0.027
104,0.62,-0.0284,-0.0285,-0.0283
104.05,0.62,-0.0273,-0.0298,-0.0283
104.1,0.62,-0.0284,-0.03,-0.0274
104.15,0.625,-0.0284,-0.0292,-0.0285
104.2,0.625,-0.0294,-0.0273,-0.0285
104.25,0.625,-0.0292,-0.0294,-0.028
104.3,0.631,-0.0296,-0.0294,-0.0283
104.35,0.631,-0.03,-0.0304,-0.028
104.4,0.625,-0.0294,-0.03,-0.028
104.45,0.625,-0.0294,-0.0302,-0.0272
104.5,0.631,-0.0284,-0.0283,-0.0247
104.55,0.631,-0.0282,-0.0286,-0.0287
104.6,0.625,-0.0288,-0.0288,-0.0278
104.65,0.631,-0.0304,-0.0298,-0.0278
104.7,0.631,-0.03,-0.0286,-0.0272
104.75,0.625,-0.0286,-0.029,-0.0293
104.8,0.631,-0.0284,-0.0288,-0.0285
104.85,0.631,-0.0298,-0.0273,-0.0268
104.9,0.631,-0.0286,-0.03,-0.0281
104.95,0.631,-0.0284,-0.0285,-0.0297
105,0.636,-0.0288,-0.0275,-0.027
105.05,0.625,-0.0288,-0.0288,-0.0285
105.1,0.636,-0.0294,-0.0296,-0.0283
105.15,0.636,-0.03,-0.0306,-0.0285
105.2,0.636,-0.0284,-0.0304,-0.0276
105.25,0.636,-0.0284,-0.029,-0.0289
105.3,0.641,-0.031,-0.0288,-0.0283
105.35,0.636,-0.0304,-0.0288,-0.0274
105.4,0.636,-0.0296,-0.0302,-0.0287
105.45,0.641,-0.0296,-0.0285,-0.0285
105.5,0.636,-0.0306,-0.0304,-0.027
105.55,0.641,-0.0304,-0.0288,-0.0266
105.6,0.636,-0.03,-0.03,-0.0278
105.65,0.636,-0.0302,-0.0288,-0.0295
105.7,0.641,-0.029,-0.0288,-0.0287
105.75,0.641,-0.0288,-0.0296,-0.0278
105.8,0.636,-0.0292,-0.0302,-0.028
105.85,0.641,-0.0308,-0.0304,-0.0281
105.9,0.641,-0.0284,-0.0294,-0.0266
105.95,0.641,-0.0288,-0.0292,-0.0287
106,0.641,-0.03,-0.031,-0.0281
106.05,0.636,-0.0288,-0.0279,-0.0297
106.1,0.641,-0.0294,-0.0285,-0.0268
106.15,0.641,-0.0292,-0.0288,-0.028
106.2,0.641,-0.0296,-0.03,-0.0281
106.25,0.647,-0.0282,-0.0292,-0.0285
106.3,0.647,-0.0296,-0.0304,-0.0297
106.35,0.647,-0.0294,-0.0283,-0.0299
106.4,0.647,-0.0302,-0.0294,-0.0293
106.45,0.647,-0.03,-0.0314,-0.0297
106.5,0.647,-0.0292,-0.0304,-0.0285
106.55,0.652,-0.0304,-0.0294,-0.0268
106.6,0.652,-0.031,-0.0304,-0.0295
106.65,0.652,-0.0304,-0.0298,-0.0293
106.7,0.647,-0.0294,-0.0312,-0.0289
106.75,0.652,-0.0304,-0.0294,-0.0285
106.8,0.652,-0.0302,-0.0304,-0.0274
106.85,0.652,-0.0304,-0.0279,-0.0274
106.9,0.647,-0.0304,-0.0296,-0.0295
106.95,0.652,-0.03,-0.029,-0.0293
107,0.652,-0.0296,-0.0306,-0.0281
107.05,0.647,-0.031,-0.0302,-0.0264
107.1,0.657,-0.03,-0.0286,-0.0293
107.15,0.652,-0.0294,-0.0314,-0.0276
107.2,0.652,-0.0306,-0.031,-0.028
107.25,0.657,-0.0313,-0.031,-0.028
107.3,0.657,-0.0302,-0.0314,-0.028
107.35,0.662,-0.0319,-0.0314,-0.0278
107.4,0.662,-0.0319,-0.0316,-0.0278
107.45,0.662,-0.031,-0.0329,-0.0295
107.5,0.657,-0.0302,-0.031,-0.0278
107.55,0.657,-0.0327,-0.0318,-0.0278
107.6,0.657,-0.0302,-0.0306,-0.0293
107.65,0.662,-0.0315,-0.0316,-0.0291
107.7,0.657,-0.0308,-0.0314,-0.0293
107.75,0.662,-0.0308,-0.031,-0.0274
107.8,0.657,-0.0308,-0.0316,-0.028
107.85,0.657,-0.0294,-0.0294,-0.0303
107.9,0.662,-0.0312,-0.0302,-0.028
107.95,0.662,-0.031,-0.0306,-0.0295
108,0.662,-0.0312,-0.0306,-0.0283
108.05,0.662,-0.0304,-0.0296,-0.0301
108.1,0.657,-0.0315,-0.0306,-0.0287
108.15,0.662,-0.0325,-0.0316,-0.0295
108.2,0.662,-0.0315,-0.0318,-0.0293
108.25,0.667,-0.0321,-0.0306,-0.0289
108.3,0.667,-0.0315,-0.029,-0.0301
108.35,0.667,-0.0319,-0.0298,-0.028
108.4,0.662,-0.0325,-0.0298,-0.0301
108.45,0.667,-0.0313,-0.0319,-0.0293
108.5,0.667,-0.0319,-0.0308,-0.0303
108.55,0.667,-0.0312,-0.0306,-0.0297
108.6,0.667,-0.0304,-0.0329,-0.0291
108.65,0.667,-0.0325,-0.0306,-0.0287
108.7,0.667,-0.0315,-0.0294,-0.028
108.75,0.667,-0.0319,-0.0298,-0.0283
108.8,0.667,-0.0319,-0.029,-0.028
108.85,0.667,-0.0308,-0.0316,-0.0289
108.9,0.673,-0.031,-0.0294,-0.0299
108.95,0.667,-0.03,-0.03,-0.0281
109,0.667,-0.0312,-0.0306,-0.0278
109.05,0.667,-0.0317,-0.0306,-0.0295
109.1,0.667,-0.0319,-0.0316,-0.0301
109.15,0.673,-0.0327,-0.0296,-0.0289
109.2,0.673,-0.0313,-0.0302,-0.0305
109.25,0.678,-0.0313,-0.0294,-0.0314
109.3,0.678,-0.0313,-0.03,-0.0287
109.35,0.678,-0.0323,-0.031,-0.0287
109.4,0.678,-0.0315,-0.0319,-0.0278
109.45,0.678,-0.0319,-0.0321,-0.0289
109.5,0.678,-0.0315,-0.0302,-0.0287
109.55,0.678,-0.0312,-0.0318,-0.0297
109.6,0.678,-0.0308,-0.0314,-0.028
109.65,0.678,-0.0323,-0.0308,-0.0276
109.7,0.678,-0.0315,-0.0316,-0.0299
109.75,0.678,-0.0308,-0.0308,-0.0281
109.8,0.678,-0.0325,-0.0319,-0.0285
109.85,0.678,-0.0321,-0.0316,-0.0299
109.9,0.678,-0.0312,-0.0319,-0.0291
109.95,0.678,-0.0323,-0.0306,-0.0295
110,0.678,-0.0308,-0.0321,-0.0314
110.05,0.678,-0.0319,-0.0304,-0.0324
110.1,0.678,-0.0304,-0.0306,-0.0289
110.15,0.683,-0.0294,-0.0312,-0.0289
110.2,0.683,-0.0308,-0.0327,-0.0289
110.25,0.683,-0.0304,-0.0314,-0.0293
110.3,0.689,-0.0296,-0.031,-0.0303
110.35,0.689,-0.0325,-0.0323,-0.0287
110.4,0.689,-0.0312,-0.03,-0.0307
110.45,0.689,-0.0308,-0.0302,-0.0299
110.5,0.683,-0.031,-0.0319,-0.0289
110.55,0.689,-0.0323,-0.0302,-0.0301
110.6,0.689,-0.0327,-0.031,-0.0309
110.65,0.689,-0.0315,-0.0331,-0.0314
110.7,0.683,-0.0321,-0.031,-0.032
110.75,0.683,-0.0325,-0.0308,-0.0303
110.8,0.689,-0.0315,-0.0321,-0.0305
110.85,0.689,-0.0304,-0.0316,-0.0305
110.9,0.689,-0.0325,-0.0308,-0.032
110.95,0.689,-0.0317,-0.0319,-0.0301
111,0.694,-0.0315,-0.0304,-0.0301
111.05,0.694,-0.0315,-0.0323,-0.032
111.1,0.689,-0.031,-0.0304,-0.0303
111.15,0.694,-0.03,-0.0319,-0.0305
111.2,0.689,-0.0313,-0.0294,-0.0311
111.25,0.694,-0.0333,-0.0306,-0.0311
111.3,0.699,-0.0313,-0.0298,-0.0309
111.35,0.699,-0.0304,-0.0308,-0.0303
111.4,0.699,-0.0325,-0.0333,-0.0311
111.45,0.699,-0.0321,-0.0314,-0.0299
111.5,0.699,-0.0319,-0.0331,-0.0291
111.55,0.694,-0.0317,-0.0321,-0.0299
111.6,0.699,-0.0317,-0.0319,-0.0309
111.65,0.699,-0.0325,-0.0308,-0.0314
111.7,0.699,-0.0317,-0.0304,-0.0305
111.75,0.699,-0.0317,-0.0314,-0.0303
111.8,0.699,-0.0312,-0.031,-0.0301
111.85,0.699,-0.0323,-0.0323,-0.0311
111.9,0.699,-0.0325,-0.0329,-0.0305
111.95,0.699,-0.0321,-0.03,-0.0316
112,0.699,-0.0323,-0.0323,-0.0291
112.05,0.699,-0.0315,-0.0316,-0.0313
112.1,0.699,-0.0317,-0.0314,-0.0316
112.15,0.699,-0.03,-0.0314,-0.0309
112.2,0.699,-0.0323,-0.0325,-0.0316
112.25,0.699,-0.0312,-0.0296,-0.0322
112.3,0.699,-0.031,-0.0312,-0.0301
112.35,0.699,-0.0319,-0.0327,-0.0307
112.4,0.694,-0.0325,-0.0319,-0.032
112.45,0.699,-0.0329,-0.0318,-0.0314
112.5,0.699,-0.0323,-0.0304,-0.0307
112.55,0.699,-0.0319,-0.031,-0.0305
112.6,0.699,-0.0315,-0.0304,-0.0309
112.65,0.699,-0.0321,-0.0312,-0.0297
112.7,0.699,-0.0321,-0.0323,-0.0309
112.75,0.704,-0.0313,-0.0323,-0.0289
112.8,0.704,-0.0304,-0.0325,-0.0314
112.85,0.704,-0.0329,-0.0327,-0.0314
112.9,0.704,-0.0298,-0.0314,-0.0303
112.95,0.704,-0.0331,-0.0319,-0.0311
113,0.704,-0.0325,-0.0319,-0.0311
113.05,0.709,-0.0325,-0.0325,-0.0313
113.1,0.709,-0.0308,-0.0325,-0.0314
113.15,0.709,-0.0325,-0.0331,-0.0316
113.2,0.715,-0.0321,-0.0319,-0.0309
113.25,0.709,-0.0333,-0.0321,-0.0305
113.3,0.715,-0.0323,-0.0325,-0.0318
113.35,0.709,-0.0312,-0.0318,-0.0316
113.4,0.709,-0.0321,-0.0327,-0.0314
113.45,0.72,-0.0319,-0.0321,-0.0301
113.5,0.715,-0.0329,-0.0316,-0.0332
113.55,0.72,-0.0319,-0.0319,-0.0324
113.6,0.72,-0.0333,-0.0325,-0.0297
113.65,0.72,-0.0333,-0.0325,-0.0297
113.7,0.72,-0.0331,-0.0314,-0.0311
113.75,0.72,-0.0325,-0.0321,-0.0324
113.8,0.72,-0.0321,-0.0312,-0.0326
113.85,0.715,-0.0315,-0.0323,-0.0326
113.9,0.72,-0.0348,-0.0314,-0.0318
113.95,0.72,-0.0319,-0.0329,-0.0307
114,0.72,-0.0339,-0.0331,-0.0332
114.05,0.715,-0.0333,-0.0321,-0.0322
114.1,0.72,-0.0323,-0.0333,-0.032
114.15,0.72,-0.0325,-0.031,-0.033
114.2,0.72,-0.0339,-0.0333,-0.0324
114.25,0.725,-0.0323,-0.0337,-0.0316
114.3,0.725,-0.0329,-0.0335,-0.0324
114.35,0.725,-0.0339,-0.0337,-0.0324
114.4,0.725,-0.0319,-0.0329,-0.0332
114.45,0.725,-0.0343,-0.0321,-0.0314
114.5,0.725,-0.0327,-0.0329,-0.0338
114.55,0.725,-0.0339,-0.0335,-0.0326
114.6,0.731,-0.0339,-0.0327,-0.0332
114.65,0.731,-0.0333,-0.0335,-0.0313
114.7,0.736,-0.0333,-0.0329,-0.0326
114.75,0.736,-0.0325,-0.0339,-0.0326
114.8,0.731,-0.0317,-0.0341,-0.0328
114.85,0.725,-0.0331,-0.0339,-0.0342
114.9,0.731,-0.0335,-0.0323,-0.033
114.95,0.736,-0.0325,-0.0335,-0.0336
115,0.736,-0.0323,-0.0341,-0.0332
115.05,0.736,-0.0339,-0.0351,-0.0324
115.1,0.741,-0.0325,-0.0351,-0.0334
115.15,0.741,-0.0333,-0.0335,-0.0318
115.2,0.741,-0.0346,-0.0323,-0.0324
115.25,0.736,-0.0335,-0.0316,-0.0349
115.3,0.741,-0.0331,-0.0314,-0.0328
115.35,0.741,-0.0333,-0.0347,-0.0332
115.4,0.741,-0.0323,-0.0347,-0.0324
115.45,0.741,-0.0341,-0.0325,-0.0342
115.5,0.741,-0.0337,-0.0341,-0.0328
115.55,0.736,-0.0329,-0.0335,-0.033
115.6,0.741,-0.0339,-0.0319,-0.0332
115.65,0.741,-0.0329,-0.0331,-0.0328
115.7,0.741,-0.0346,-0.0329,-0.0342
115.75,0.741,-0.0341,-0.0323,-0.0336
115.8,0.741,-0.0331,-0.0329,-0.0336
115.85,0.741,-0.0325,-0.0337,-0.0344
115.9,0.741,-0.0337,-0.0325,-0.0311
115.95,0.741,-0.0346,-0.0333,-0.032
116,0.741,-0.0339,-0.0325,-0.0334
116.05,0.741,-0.0339,-0.0327,-0.0342
116.1,0.741,-0.0333,-0.0347,-0.033
116.15,0.746,-0.0333,-0.0343,-0.0336
116.2,0.746,-0.0331,-0.0321,-0.0326
116.25,0.746,-0.035,-0.0339,-0.0324
116.3,0.746,-0.0344,-0.0321,-0.034
116.35,0.746,-0.0337,-0.0347,-0.033
116.4,0.746,-0.0348,-0.0341,-0.0336
116.45,0.746,-0.0341,-0.0323,-0.0344
116.5,0.746,-0.035,-0.0339,-0.0334
116.55,0.752,-0.035,-0.0329,-0.0332
116.6,0.746,-0.0341,-0.0337,-0.0349
116.65,0.746,-0.0341,-0.0325,-0.034
116.7,0.752,-0.0327,-0.0339,-0.0314
116.75,0.746,-0.0352,-0.0343,-0.0342
116.8,0.746,-0.0339,-0.0325,-0.0324
116.85,0.746,-0.0346,-0.0323,-0.0332
116.9,0.746,-0.0333,-0.0331,-0.0303
116.95,0.746,-0.0348,-0.0347,-0.033
117,0.752,-0.0348,-0.0339,-0.032
117.05,0.757,-0.0358,-0.0333,-0.033
117.1,0.752,-0.0348,-0.0347,-0.0332
117.15,0.757,-0.0339,-0.0333,-0.0342
117.2,0.757,-0.0346,-0.0341,-0.0346
117.25,0.752,-0.0354,-0.0335,-0.0326
117.3,0.757,-0.0337,-0.0345,-0.0338
117.35,0.762,-0.0343,-0.0327,-0.0336
117.4,0.757,-0.0344,-0.0347,-0.034
117.45,0.762,-0.0348,-0.0345,-0.0351
117.5,0.757,-0.0341,-0.0349,-0.0332
117.55,0.762,-0.0341,-0.0341,-0.0342
117.6,0.762,-0.0348,-0.0351,-0.0334
117.65,0.757,-0.0344,-0.0353,-0.0349
117.7,0.757,-0.035,-0.0335,-0.0349
117.75,0.757,-0.0344,-0.0347,-0.0357
117.8,0.762,-0.0354,-0.0329,-0.0344
117.85,0.757,-0.035,-0.0337,-0.034
117.9,0.762,-0.035,-0.0339,-0.0344
117.95,0.757,-0.0337,-0.0364,-0.0338
118,0.762,-0.0346,-0.0343,-0.0348
118.05,0.757,-0.0354,-0.0329,-0.0348
118.1,0.762,-0.0354,-0.0333,-0.0353
118.15,0.762,-0.0348,-0.0347,-0.0349
118.2,0.767,-0.0341,-0.0353,-0.0324
118.25,0.767,-0.0335,-0.036,-0.033
118.3,0.767,-0.036,-0.0353,-0.0357
118.35,0.767,-0.0358,-0.0333,-0.0346
118.4,0.767,-0.0341,-0.0347,-0.0326
118.45,0.767,-0.035,-0.0337,-0.0332
118.5,0.767,-0.0356,-0.0341,-0.0322
118.55,0.767,-0.0333,-0.0339,-0.034
118.6,0.767,-0.0364,-0.0323,-0.0322
118.65,0.767,-0.0348,-0.0354,-0.0318
118.7,0.767,-0.0348,-0.0339,-0.0349
118.75,0.767,-0.0354,-0.0353,-0.0328
118.8,0.767,-0.0356,-0.0351,-0.0348
118.85,0.767,-0.0366,-0.0356,-0.0344
118.9,0.767,-0.036,-0.0349,-0.0349
118.95,0.767,-0.035,-0.0343,-0.0332
119,0.767,-0.0356,-0.0366,-0.0342
119.05,0.767,-0.0356,-0.0337,-0.034
119.1,0.773,-0.036,-0.036,-0.0324
119.15,0.773,-0.0354,-0.0362,-0.0342
119.2,0.767,-0.0352,-0.0353,-0.0349
119.25,0.773,-0.0339,-0.0362,-0.0342
119.3,0.778,-0.0354,-0.036,-0.0349
119.35,0.778,-0.0341,-0.0354,-0.0346
119.4,0.778,-0.0348,-0.0341,-0.0349
119.45,0.778,-0.0356,-0.0358,-0.0365
119.5,0.778,-0.0356,-0.0337,-0.0359
119.55,0.778,-0.035,-0.0345,-0.034
119.6,0.778,-0.036,-0.0354,-0.0348
119.65,0.778,-0.0364,-0.0349,-0.0353
119.7,0.783,-0.0364,-0.0354,-0.0371
119.75,0.778,-0.035,-0.0347,-0.0348
119.8,0.778,-0.0364,-0.0364,-0.0349
119.85,0.778,-0.0366,-0.0351,-0.0351
119.9,0.778,-0.0356,-0.0362,-0.0355
119.95,0.778,-0.0348,-0.0362,-0.0349
120,0.778,-0.035,-0.0349,-0.0348
120.05,0.778,-0.036,-0.0345,-0.0351
120.1,0.778,-0.0364,-0.0351,-0.0353
120.15,0.778,-0.0352,-0.0329,-0.0351
120.2,0.783,-0.0356,-0.0368,-0.034
120.25,0.783,-0.0377,-0.0349,-0.0361
120.3,0.788,-0.0364,-0.0343,-0.0348
120.35,0.783,-0.0358,-0.0374,-0.0336
120.4,0.788,-0.0356,-0.0353,-0.0348
120.45,0.788,-0.0358,-0.0366,-0.0355
120.5,0.788,-0.035,-0.0368,-0.0357
120.55,0.788,-0.0358,-0.0362,-0.0355
120.6,0.783,-0.0354,-0.0341,-0.0363
120.65,0.788,-0.0362,-0.036,-0.033
120.7,0.788,-0.0356,-0.0356,-0.0369
120.75,0.788,-0.0366,-0.0358,-0.0348
120.8,0.788,-0.0358,-0.036,-0.0344
120.85,0.788,-0.0354,-0.0364,-0.0346
120.9,0.788,-0.0346,-0.0354,-0.0357
120.95,0.788,-0.0366,-0.0368,-0.0367
121,0.788,-0.0362,-0.0351,-0.0365
121.05,0.788,-0.0356,-0.0351,-0.0351
121.1,0.788,-0.0348,-0.037,-0.0326
121.15,0.788,-0.0343,-0.0362,-0.0359
121.2,0.788,-0.037,-0.0351,-0.0349
121.25,0.794,-0.0366,-0.036,-0.0348
121.3,0.794,-0.0377,-0.0362,-0.0361
121.35,0.794,-0.0374,-0.037,-0.0359
121.4,0.794,-0.0364,-0.0354,-0.0349
121.45,0.794,-0.0364,-0.0353,-0.0346
121.5,0.794,-0.0354,-0.0368,-0.0346
121.55,0.799,-0.0372,-0.0362,-0.0344
121.6,0.794,-0.0362,-0.0366,-0.0351
121.65,0.794,-0.037,-0.0376,-0.0373
121.7,0.794,-0.036,-0.0345,-0.0367
121.75,0.794,-0.0356,-0.036,-0.0344
121.8,0.799,-0.0366,-0.0358,-0.0334
121.85,0.799,-0.0364,-0.036,-0.0334
121.9,0.794,-0.0383,-0.0368,-0.0357
121.95,0.794,-0.0364,-0.0356,-0.0369
122,0.799,-0.0377,-0.0354,-0.0349
122.05,0.799,-0.0376,-0.0356,-0.0361
122.1,0.804,-0.037,-0.0353,-0.0361
122.15,0.804,-0.0364,-0.0351,-0.0338
122.2,0.804,-0.037,-0.036,-0.0348
122.25,0.804,-0.037,-0.036,-0.0357
122.3,0.804,-0.0358,-0.036,-0.0363
122.35,0.804,-0.0374,-0.0356,-0.0344
122.4,0.804,-0.0385,-0.036,-0.0355
122.45,0.804,-0.0362,-0.0366,-0.0348
122.5,0.804,-0.0364,-0.0356,-0.0367
122.55,0.804,-0.037,-0.0374,-0.0359
122.6,0.804,-0.0374,-0.0349,-0.0357
122.65,0.804,-0.0362,-0.0362,-0.0365
122.7,0.804,-0.0366,-0.0358,-0.0359
122.75,0.809,-0.0372,-0.0372,-0.0351
122.8,0.809,-0.0374,-0.0378,-0.0357
122.85,0.809,-0.037,-0.0366,-0.0357
122.9,0.809,-0.0376,-0.0366,-0.0359
122.95,0.809,-0.0362,-0.0378,-0.0357
123,0.809,-0.0377,-0.0366,-0.0355
123.05,0.809,-0.0372,-0.0378,-0.0361
123.1,0.809,-0.0354,-0.0382,-0.0355
123.15,0.809,-0.037,-0.0368,-0.0373
123.2,0.809,-0.0364,-0.037,-0.0349
123.25,0.815,-0.0383,-0.036,-0.0361
123.3,0.82,-0.0372,-0.0358,-0.0363
123.35,0.82,-0.0376,-0.0368,-0.0355
123.4,0.815,-0.0381,-0.0372,-0.0348
123.45,0.809,-0.0399,-0.037,-0.034
123.5,0.815,-0.0368,-0.0378,-0.0353
123.55,0.815,-0.037,-0.036,-0.0353
123.6,0.82,-0.0366,-0.0387,-0.0373
123.65,0.82,-0.0385,-0.0368,-0.0367
123.7,0.815,-0.037,-0.0368,-0.0359
123.75,0.82,-0.0364,-0.0368,-0.0365
123.8,0.82,-0.0381,-0.0376,-0.0349
123.85,0.82,-0.0377,-0.0382,-0.0346
123.9,0.815,-0.0377,-0.0356,-0.0357
123.95,0.815,-0.037,-0.0345,-0.0365
124,0.82,-0.0395,-0.0378,-0.0349
124.05,0.82,-0.0387,-0.0366,-0.0373
124.1,0.82,-0.0374,-0.0366,-0.0357
124.15,0.825,-0.037,-0.0368,-0.0361
124.2,0.825,-0.0381,-0.0374,-0.0361
124.25,0.825,-0.0383,-0.0354,-0.0371
124.3,0.825,-0.0387,-0.0382,-0.0353
124.35,0.825,-0.0391,-0.0376,-0.0377
124.4,0.825,-0.0376,-0.038,-0.0375
124.45,0.825,-0.0381,-0.0356,-0.0371
124.5,0.825,-0.0366,-0.0378,-0.0334
124.55,0.825,-0.0377,-0.0376,-0.0373
124.6,0.825,-0.0391,-0.038,-0.0373
124.65,0.825,-0.0376,-0.0384,-0.0371
124.7,0.825,-0.0385,-0.0374,-0.0384
124.75,0.825,-0.037,-0.0366,-0.0361
124.8,0.83,-0.0381,-0.0382,-0.0369
124.85,0.825,-0.0368,-0.0399,-0.0373
124.9,0.825,-0.0381,-0.0374,-0.0382
124.95,0.83,-0.0374,-0.0382,-0.0353
125,0.83,-0.0381,-0.0366,-0.0379
125.05,0.83,-0.0395,-0.0368,-0.038
125.1,0.83,-0.0389,-0.0387,-0.0375
125.15,0.836,-0.0377,-0.0384,-0.0384
125.2,0.83,-0.0383,-0.0372,-0.0369
125.25,0.836,-0.0389,-0.0397,-0.0371
125.3,0.836,-0.0401,-0.0391,-0.0373
125.35,0.83,-0.0387,-0.0389,-0.0382
125.4,0.836,-0.0377,-0.0389,-0.0365
125.45,0.836,-0.0374,-0.038,-0.0392
125.5,0.836,-0.0385,-0.0387,-0.0382
125.55,0.836,-0.0379,-0.0354,-0.0379
125.6,0.836,-0.0399,-0.0366,-0.0373
125.65,0.836,-0.0389,-0.0366,-0.0382
125.7,0.841,-0.0387,-0.037,-0.0365
125.75,0.836,-0.0376,-0.0378,-0.0379
125.8,0.836,-0.0387,-0.0382,-0.0371
125.85,0.836,-0.0387,-0.0374,-0.0346
125.9,0.841,-0.0377,-0.0395,-0.0373
125.95,0.836,-0.0393,-0.0366,-0.0388
126,0.836,-0.0385,-0.0378,-0.0386
126.05,0.836,-0.0391,-0.0391,-0.0386
126.1,0.841,-0.0393,-0.0389,-0.0379
126.15,0.846,-0.0391,-0.0372,-0.038
126.2,0.841,-0.0393,-0.0376,-0.0371
126.25,0.846,-0.0395,-0.0382,-0.038
126.3,0.846,-0.0395,-0.0399,-0.0379
126.35,0.846,-0.0385,-0.0384,-0.0382
126.4,0.846,-0.0397,-0.0372,-0.0365
126.45,0.846,-0.0397,-0.0378,-0.0377
126.5,0.846,-0.0395,-0.0393,-0.0384
126.55,0.846,-0.0387,-0.0393,-0.0377
126.6,0.846,-0.0387,-0.0368,-0.0377
126.65,0.846,-0.0385,-0.0354,-0.0379
126.7,0.846,-0.0391,-0.0399,-0.0371
126.75,0.846,-0.0397,-0.0399,-0.0382
126.8,0.846,-0.0401,-0.0395,-0.0379
126.85,0.846,-0.0381,-0.0382,-0.0386
126.9,0.846,-0.0391,-0.037,-0.0382
126.95,0.841,-0.0383,-0.0399,-0.039
127,0.846,-0.0389,-0.0395,-0.0384
127.05,0.846,-0.0387,-0.0376,-0.0392
127.1,0.851,-0.0399,-0.0382,-0.0408
127.15,0.851,-0.0395,-0.0387,-0.0388
127.2,0.851,-0.0387,-0.0393,-0.0379
127.25,0.851,-0.0393,-0.0391,-0.0384
127.3,0.851,-0.0379,-0.0413,-0.0402
127.35,0.851,-0.0391,-0.0387,-0.0388
127.4,0.857,-0.0389,-0.0374,-0.0386
127.45,0.857,-0.0383,-0.0397,-0.0388
127.5,0.851,-0.0385,-0.0387,-0.0382
127.55,0.857,-0.0387,-0.0393,-0.0382
127.6,0.857,-0.0377,-0.0376,-0.0365
127.65,0.851,-0.0389,-0.0399,-0.0377
127.7,0.857,-0.0385,-0.0389,-0.038
127.75,0.857,-0.0376,-0.0397,-0.0396
127.8,0.851,-0.0393,-0.0399,-0.0392
127.85,0.857,-0.0385,-0.0395,-0.038
127.9,0.857,-0.0374,-0.0393,-0.0379
127.95,0.857,-0.0383,-0.0387,-0.0394
128,0.862,-0.0399,-0.0382,-0.0396
128.05,0.857,-0.0393,-0.0397,-0.0388
128.1,0.862,-0.0391,-0.0411,-0.0377
128.15,0.862,-0.0391,-0.0399,-0.0394
128.2,0.867,-0.0401,-0.0415,-0.0379
128.25,0.867,-0.0381,-0.0403,-0.0384
128.3,0.867,-0.0387,-0.0409,-0.0382
128.35,0.867,-0.0385,-0.0401,-0.038
128.4,0.867,-0.0399,-0.0403,-0.04
128.45,0.867,-0.037,-0.0378,-0.038
128.5,0.867,-0.0397,-0.0399,-0.0379
128.55,0.867,-0.0395,-0.0387,-0.0382
128.6,0.867,-0.0391,-0.0393,-0.0377
128.65,0.867,-0.0389,-0.0405,-0.0402
128.7,0.862,-0.0381,-0.0407,-0.0408
128.75,0.867,-0.0395,-0.0405,-0.0396
128.8,0.867,-0.0395,-0.0391,-0.04
128.85,0.867,-0.0393,-0.0395,-0.0394
128.9,0.867,-0.0391,-0.0413,-0.0398
128.95,0.862,-0.0397,-0.0399,-0.0388
129,0.867,-0.0403,-0.0407,-0.0402
129.05,0.867,-0.0395,-0.0409,-0.0386
129.1,0.867,-0.0393,-0.0401,-0.0394
129.15,0.867,-0.0393,-0.0401,-0.0392
129.2,0.867,-0.0395,-0.0397,-0.038
129.25,0.872,-0.0399,-0.0384,-0.0377
129.3,0.872,-0.0397,-0.0413,-0.0373
129.35,0.872,-0.0385,-0.0415,-0.0375
129.4,0.872,-0.0393,-0.0421,-0.0392
129.45,0.872,-0.0405,-0.0413,-0.0386
129.5,0.878,-0.0395,-0.0399,-0.0392
129.55,0.878,-0.0391,-0.0419,-0.0388
129.6,0.872,-0.0389,-0.0403,-0.038
129.65,0.878,-0.0397,-0.0397,-0.0384
129.7,0.872,-0.0381,-0.0393,-0.0379
129.75,0.872,-0.0407,-0.0395,-0.0406
129.8,0.872,-0.0366,-0.0419,-0.04
129.85,0.872,-0.0395,-0.0409,-0.0394
129.9,0.872,-0.0397,-0.0409,-0.0402
129.95,0.872,-0.0393,-0.0399,-0.0388
130,0.872,-0.0411,-0.0393,-0.0386
130.05,0.872,-0.0401,-0.0403,-0.0396
130.1,0.878,-0.0393,-0.0395,-0.0386
130.15,0.872,-0.0395,-0.0399,-0.0365
130.2,0.878,-0.0407,-0.0409,-0.039
130.25,0.883,-0.0397,-0.0413,-0.0394
130.3,0.878,-0.0385,-0.0401,-0.0406
130.35,0.883,-0.0393,-0.0413,-0.0394
130.4,0.883,-0.0393,-0.0411,-0.0398
130.45,0.883,-0.0395,-0.0393,-0.0404
130.5,0.883,-0.0401,-0.0411,-0.0373
130.55,0.888,-0.0395,-0.0391,-0.0379
130.6,0.883,-0.0412,-0.0397,-0.039
130.65,0.883,-0.0397,-0.0407,-0.0373
130.7,0.878,-0.0393,-0.0407,-0.0392
130.75,0.888,-0.0409,-0.0401,-0.0382
130.8,0.888,-0.0395,-0.0409,-0.0379
130.85,0.883,-0.0397,-0.0415,-0.0404
130.9,0.888,-0.0395,-0.0403,-0.039
130.95,0.888,-0.0399,-0.0419,-0.0386
131,0.888,-0.0393,-0.0407,-0.0402
131.05,0.888,-0.0412,-0.0413,-0.0392
131.1,0.888,-0.0403,-0.0415,-0.0394
131.15,0.888,-0.0407,-0.0401,-0.038
131.2,0.888,-0.0379,-0.0397,-0.039
131.25,0.888,-0.0411,-0.0409,-0.0396
131.3,0.888,-0.0411,-0.0409,-0.0394
131.35,0.894,-0.0414,-0.0422,-0.039
131.4,0.894,-0.0393,-0.0401,-0.0388
131.45,0.894,-0.0418,-0.0413,-0.0408
131.5,0.894,-0.0401,-0.0419,-0.0394
131.55,0.894,-0.0411,-0.0422,-0.0396
131.6,0.899,-0.0411,-0.0417,-0.0392
131.65,0.894,-0.0403,-0.0413,-0.0402
131.7,0.894,-0.0397,-0.0417,-0.0394
131.75,0.894,-0.0397,-0.0424,-0.0408
131.8,0.894,-0.0395,-0.0409,-0.0394
131.85,0.894,-0.0412,-0.0419,-0.04
131.9,0.894,-0.0387,-0.0419,-0.0398
131.95,0.894,-0.0405,-0.0415,-0.0394
132,0.894,-0.0391,-0.0409,-0.039
132.05,0.899,-0.0407,-0.0415,-0.0392
132.1,0.894,-0.0391,-0.0409,-0.0398
132.15,0.894,-0.0414,-0.0415,-0.039
132.2,0.899,-0.0409,-0.0419,-0.0406
132.25,0.904,-0.0412,-0.0399,-0.0394
132.3,0.899,-0.042,-0.0422,-0.0398
132.35,0.899,-0.0426,-0.043,-0.0398
132.4,0.904,-0.0401,-0.0399,-0.041
132.45,0.904,-0.0411,-0.0421,-0.0396
132.5,0.904,-0.0401,-0.0407,-0.0404
132.55,0.904,-0.0399,-0.0419,-0.039
132.6,0.904,-0.0407,-0.0417,-0.0402
132.65,0.909,-0.0393,-0.0419,-0.0404
132.7,0.904,-0.0409,-0.044,-0.0406
132.75,0.904,-0.0405,-0.0434,-0.0417
132.8,0.909,-0.0403,-0.0432,-0.041
132.85,0.904,-0.0418,-0.0424,-0.04
132.9,0.909,-0.0409,-0.043,-0.0406
132.95,0.904,-0.0407,-0.0421,-0.0392
133,0.904,-0.0416,-0.0419,-0.0402
133.05,0.904,-0.0407,-0.0411,-0.0394
133.1,0.904,-0.0405,-0.0428,-0.0413
133.15,0.909,-0.0397,-0.0424,-0.0419
133.2,0.904,-0.0407,-0.0415,-0.0413
133.25,0.904,-0.0412,-0.0436,-0.0396
133.3,0.904,-0.0401,-0.0421,-0.0402
133.35,0.904,-0.0405,-0.0424,-0.0398
133.4,0.909,-0.0403,-0.0432,-0.0392
133.45,0.909,-0.0416,-0.0411,-0.0398
133.5,0.909,-0.0418,-0.0413,-0.0412
133.55,0.915,-0.0403,-0.0407,-0.0415
133.6,0.909,-0.0424,-0.0405,-0.0402
133.65,0.915,-0.042,-0.0422,-0.0417
133.7,0.915,-0.0411,-0.0432,-0.0394
133.75,0.915,-0.0414,-0.0419,-0.0408
133.8,0.915,-0.0428,-0.0424,-0.0406
133.85,0.909,-0.0411,-0.0419,-0.0404
133.9,0.915,-0.0399,-0.0422,-0.0423
133.95,0.915,-0.0418,-0.0421,-0.041
134,0.915,-0.0407,-0.0428,-0.0412
134.05,0.915,-0.0412,-0.0399,-0.0404
134.1,0.915,-0.0412,-0.043,-0.0392
134.15,0.909,-0.0414,-0.0411,-0.0404
134.2,0.915,-0.0397,-0.0417,-0.041
134.25,0.92,-0.0403,-0.0422,-0.0398
134.3,0.92,-0.0411,-0.0419,-0.0388
134.35,0.915,-0.0411,-0.0409,-0.0408
134.4,0.92,-0.0409,-0.0426,-0.0421
134.45,0.92,-0.0418,-0.0426,-0.0406
134.5,0.92,-0.0416,-0.0446,-0.041
134.55,0.92,-0.0416,-0.0436,-0.0408
134.6,0.925,-0.0422,-0.043,-0.0419
134.65,0.92,-0.0411,-0.044,-0.0408
134.7,0.92,-0.0424,-0.0422,-0.0404
134.75,0.925,-0.0409,-0.0432,-0.041
134.8,0.925,-0.0412,-0.044,-0.0415
134.85,0.925,-0.0407,-0.0438,-0.0427
134.9,0.92,-0.0422,-0.0432,-0.0419
134.95,0.925,-0.0414,-0.043,-0.0412
135,0.93,-0.0409,-0.0428,-0.041
135.05,0.93,-0.0424,-0.043,-0.04
135.1,0.93,-0.0424,-0.0438,-0.0413
135.15,0.93,-0.0422,-0.044,-0.0419
135.2,0.93,-0.0426,-0.044,-0.0415
135.25,0.936,-0.0426,-0.0438,-0.0425
135.3,0.93,-0.0426,-0.0428,-0.0425
135.35,0.936,-0.0432,-0.0448,-0.0412
135.4,0.93,-0.0426,-0.0438,-0.0425
135.45,0.936,-0.042,-0.0428,-0.0425
135.5,0.936,-0.0428,-0.0421,-0.0404
135.55,0.93,-0.0411,-0.0422,-0.0429
135.6,0.936,-0.0418,-0.0434,-0.0413
135.65,0.936,-0.0418,-0.0446,-0.0417
135.7,0.936,-0.042,-0.0428,-0.0421
135.75,0.936,-0.0426,-0.0415,-0.0413
135.8,0.936,-0.0401,-0.043,-0.0417
135.85,0.936,-0.0428,-0.0438,-0.0429
135.9,0.936,-0.043,-0.0422,-0.0408
135.95,0.936,-0.0424,-0.0428,-0.0412
136,0.936,-0.0434,-0.0424,-0.0427
136.05,0.936,-0.0409,-0.0422,-0.0415
136.1,0.936,-0.0428,-0.0428,-0.0404
136.15,0.936,-0.0414,-0.0434,-0.04
136.2,0.936,-0.0412,-0.0432,-0.0423
136.25,0.936,-0.0418,-0.0422,-0.0402
136.3,0.936,-0.0426,-0.0426,-0.0421
136.35,0.936,-0.0422,-0.0432,-0.041
136.4,0.936,-0.043,-0.0442,-0.0406
136.45,0.93,-0.042,-0.0422,-0.0413
136.5,0.936,-0.0416,-0.0428,-0.0398
136.55,0.936,-0.0426,-0.0432,-0.0423
136.6,0.936,-0.0422,-0.0417,-0.0425
136.65,0.936,-0.042,-0.0434,-0.0406
136.7,0.936,-0.0432,-0.0424,-0.0417
136.75,0.936,-0.0428,-0.043,-0.0404
136.8,0.936,-0.042,-0.0438,-0.0417
136.85,0.936,-0.0414,-0.0428,-0.0406
136.9,0.936,-0.042,-0.0444,-0.0408
136.95,0.936,-0.0397,-0.0422,-0.0398
137,0.936,-0.0414,-0.043,-0.0413
137.05,0.936,-0.0418,-0.0426,-0.0412
137.1,0.936,-0.0418,-0.0446,-0.0429
137.15,0.936,-0.043,-0.0432,-0.0412
137.2,0.936,-0.0424,-0.0422,-0.0421
137.25,0.936,-0.042,-0.0417,-0.0417
137.3,0.936,-0.044,-0.0428,-0.0417
137.35,0.941,-0.0418,-0.0438,-0.041
137.4,0.941,-0.0426,-0.0432,-0.0427
137.45,0.941,-0.0424,-0.0417,-0.0419
137.5,0.936,-0.0443,-0.0453,-0.0435
137.55,0.936,-0.0438,-0.043,-0.0423
137.6,0.946,-0.0418,-0.0438,-0.0425
137.65,0.946,-0.044,-0.0436,-0.0421
137.7,0.941,-0.0424,-0.0424,-0.0415
137.75,0.946,-0.044,-0.0422,-0.0417
137.8,0.941,-0.0436,-0.0426,-0.0425
137.85,0.946,-0.0418,-0.044,-0.0408
137.9,0.941,-0.0411,-0.0422,-0.0425
137.95,0.941,-0.0428,-0.044,-0.0431
138,0.941,-0.0418,-0.0442,-0.0423
138.05,0.941,-0.0411,-0.0434,-0.0419
138.1,0.941,-0.0424,-0.0422,-0.0427
138.15,0.941,-0.0428,-0.0432,-0.0417
138.2,0.941,-0.044,-0.0415,-0.0437
138.25,0.946,-0.0418,-0.0424,-0.0435
138.3,0.951,-0.0447,-0.0428,-0.0433
138.35,0.951,-0.0442,-0.0421,-0.0413
138.4,0.946,-0.0438,-0.0426,-0.0423
138.45,0.951,-0.0424,-0.0444,-0.041
138.5,0.951,-0.0424,-0.0428,-0.0417
138.55,0.951,-0.043,-0.0434,-0.041
138.6,0.951,-0.0424,-0.0419,-0.0433
138.65,0.951,-0.0438,-0.0436,-0.0417
138.7,0.951,-0.0428,-0.0424,-0.0443
138.75,0.951,-0.0443,-0.0422,-0.0433
138.8,0.951,-0.0451,-0.0438,-0.0445
138.85,0.951,-0.044,-0.044,-0.0417
138.9,0.957,-0.0422,-0.0434,-0.0435
138.95,0.951,-0.044,-0.0438,-0.0439
139,0.951,-0.0436,-0.0419,-0.0429
139.05,0.951,-0.0449,-0.0442,-0.0425
139.1,0.951,-0.0432,-0.0446,-0.0437
139.15,0.957,-0.044,-0.043,-0.0406
139.2,0.957,-0.044,-0.0428,-0.0431
139.25,0.957,-0.0436,-0.0444,-0.0447
139.3,0.957,-0.0414,-0.043,-0.0404
139.35,0.962,-0.0447,-0.0434,-0.0419
139.4,0.957,-0.0449,-0.0446,-0.0427
139.45,0.962,-0.0445,-0.0452,-0.0429
139.5,0.962,-0.0436,-0.0432,-0.0429
139.55,0.962,-0.0443,-0.0438,-0.0425
139.6,0.962,-0.0434,-0.0438,-0.0445
139.65,0.962,-0.0432,-0.044,-0.0439
139.7,0.962,-0.0432,-0.0446,-0.0425
139.75,0.962,-0.0445,-0.0432,-0.0439
139.8,0.962,-0.0453,-0.0444,-0.0431
139.85,0.962,-0.0434,-0.045,-0.0437
139.9,0.962,-0.044,-0.044,-0.0419
139.95,0.962,-0.0432,-0.043,-0.0431
140,0.962,-0.0442,-0.0448,-0.0423
140.05,0.962,-0.0424,-0.043,-0.0423
140.1,0.962,-0.0432,-0.0432,-0.0433
140.15,0.962,-0.0442,-0.0446,-0.0425
140.2,0.962,-0.0422,-0.0421,-0.0415
140.25,0.967,-0.0442,-0.0432,-0.0427
140.3,0.972,-0.0432,-0.0432,-0.0425
140.35,0.972,-0.0442,-0.045,-0.0417
140.4,0.972,-0.0445,-0.0438,-0.0417
140.45,0.972,-0.0438,-0.0452,-0.0431
140.5,0.972,-0.0434,-0.0432,-0.0423
140.55,0.972,-0.0438,-0.0446,-0.0429
140.6,0.972,-0.0438,-0.044,-0.0448
140.65,0.972,-0.0428,-0.0434,-0.0439
140.7,0.972,-0.0453,-0.0422,-0.0448
140.75,0.972,-0.044,-0.0444,-0.0437
140.8,0.978,-0.0449,-0.044,-0.0441
140.85,0.972,-0.0461,-0.0442,-0.0429
140.9,0.978,-0.044,-0.0446,-0.0427
140.95,0.978,-0.0442,-0.0438,-0.0433
141,0.978,-0.0442,-0.0452,-0.0443
141.05,0.978,-0.0455,-0.0432,-0.0458
141.1,0.978,-0.0447,-0.0455,-0.0439
141.15,0.983,-0.0449,-0.044,-0.0445
141.2,0.978,-0.044,-0.0434,-0.045
141.25,0.978,-0.0428,-0.0452,-0.045
141.3,0.983,-0.0436,-0.0424,-0.0433
141.35,0.978,-0.0449,-0.0434,-0.0439
141.4,0.983,-0.0447,-0.0452,-0.0448
141.45,0.978,-0.0457,-0.0461,-0.0448
141.5,0.983,-0.044,-0.045,-0.0443
141.55,0.983,-0.0443,-0.0455,-0.0443
141.6,0.978,-0.0432,-0.0446,-0.0437
141.65,0.978,-0.0434,-0.0469,-0.0433
141.7,0.983,-0.0442,-0.0453,-0.0425
141.75,0.983,-0.0438,-0.0434,-0.0433
141.8,0.983,-0.0434,-0.0453,-0.0423
141.85,0.978,-0.0442,-0.0453,-0.0429
141.9,0.983,-0.0455,-0.0428,-0.0427
141.95,0.983,-0.0457,-0.0448,-0.0437
142,0.983,-0.0442,-0.045,-0.0448
142.05,0.978,-0.0455,-0.0465,-0.0441
142.1,0.978,-0.0438,-0.0455,-0.0433
142.15,0.988,-0.0465,-0.0455,-0.0439
142.2,0.988,-0.0465,-0.0436,-0.0443
142.25,0.988,-0.0432,-0.0453,-0.0415
142.3,0.988,-0.0465,-0.045,-0.0441
142.35,0.994,-0.0445,-0.0446,-0.0433
142.4,0.988,-0.0459,-0.045,-0.0425
142.45,0.994,-0.0461,-0.0457,-0.0439
142.5,0.994,-0.0463,-0.0434,-0.0421
142.55,0.988,-0.0442,-0.044,-0.046
142.6,0.994,-0.0449,-0.0461,-0.0441
142.65,0.988,-0.0453,-0.0455,-0.0452
142.7,0.994,-0.0465,-0.0457,-0.0429
142.75,0.994,-0.0453,-0.0463,-0.0427
142.8,0.994,-0.0457,-0.0477,-0.0454
142.85,0.988,-0.0445,-0.0461,-0.0433
142.9,0.994,-0.0457,-0.0453,-0.0445
142.95,0.994,-0.0457,-0.0481,-0.0427
143,0.999,-0.0453,-0.0471,-0.0431
143.05,0.999,-0.0459,-0.0461,-0.0441
143.1,0.999,-0.0459,-0.0459,-0.0433
143.15,1.004,-0.0449,-0.0448,-0.0431
143.2,1.004,-0.0449,-0.0453,-0.0427
143.25,1.004,-0.0451,-0.0461,-0.0441
143.3,1.004,-0.0463,-0.0465,-0.0437
143.35,1.009,-0.0453,-0.0461,-0.0443
143.4,1.004,-0.0457,-0.045,-0.0445
143.45,1.009,-0.0465,-0.0465,-0.0439
143.5,1.004,-0.0455,-0.0459,-0.0433
143.55,1.004,-0.0445,-0.0452,-0.0445
143.6,1.009,-0.0471,-0.0469,-0.0441
143.65,1.009,-0.0459,-0.0469,-0.0437
143.7,1.004,-0.0457,-0.0487,-0.0441
143.75,1.009,-0.0465,-0.0479,-0.0445
143.8,1.009,-0.0457,-0.0465,-0.0431
143.85,1.009,-0.0463,-0.0475,-0.0423
143.9,1.004,-0.0463,-0.0463,-0.0454
143.95,1.009,-0.0459,-0.0475,-0.0435
144,1.009,-0.0471,-0.0475,-0.0445
144.05,1.009,-0.0471,-0.0475,-0.0433
144.1,1.014,-0.0451,-0.0459,-0.0437
144.15,1.009,-0.0449,-0.0475,-0.0452
144.2,1.014,-0.0459,-0.0481,-0.0456
144.25,1.02,-0.0463,-0.0469,-0.0458
144.3,1.014,-0.0457,-0.0477,-0.0452
144.35,1.02,-0.0467,-0.0467,-0.0439
144.4,1.02,-0.0455,-0.0452,-0.045
144.45,1.02,-0.0474,-0.0461,-0.0443
144.5,1.02,-0.0467,-0.0467,-0.0448
144.55,1.02,-0.0467,-0.0481,-0.045
144.6,1.02,-0.0465,-0.0461,-0.0448
144.65,1.02,-0.0469,-0.0469,-0.0447
144.7,1.02,-0.0451,-0.0475,-0.0441
144.75,1.02,-0.0453,-0.0469,-0.0435
144.8,1.02,-0.0459,-0.0463,-0.0425
144.85,1.02,-0.0469,-0.0455,-0.0445
144.9,1.014,-0.0469,-0.0465,-0.0441
144.95,1.02,-0.0461,-0.0467,-0.0452
145,1.02,-0.0461,-0.0469,-0.0445
145.05,1.02,-0.0457,-0.0463,-0.0462
145.1,1.02,-0.0474,-0.0469,-0.0454
145.15,1.02,-0.0455,-0.0475,-0.0458
145.2,1.025,-0.0463,-0.0453,-0.0445
145.25,1.025,-0.0469,-0.0475,-0.0435
145.3,1.03,-0.0473,-0.0465,-0.0445
145.35,1.03,-0.048,-0.045,-0.0427
145.4,1.03,-0.048,-0.0457,-0.0448
145.45,1.03,-0.0459,-0.0467,-0.0456
145.5,1.03,-0.0457,-0.0457,-0.0448
145.55,1.03,-0.0463,-0.0485,-0.0454
145.6,1.03,-0.0469,-0.0465,-0.0454
145.65,1.03,-0.0473,-0.0475,-0.0454
145.7,1.025,-0.0473,-0.0465,-0.0439
145.75,1.03,-0.0457,-0.0475,-0.0439
145.8,1.03,-0.0455,-0.0475,-0.0454
145.85,1.03,-0.0459,-0.0475,-0.0456
145.9,1.03,-0.0457,-0.0463,-0.0445
145.95,1.03,-0.0459,-0.0473,-0.0452
146,1.025,-0.0463,-0.0485,-0.0458
146.05,1.03,-0.0459,-0.0481,-0.0448
146.1,1.03,-0.0459,-0.0475,-0.046
146.15,1.03,-0.0457,-0.0477,-0.0466
146.2,1.03,-0.0455,-0.0477,-0.0452
146.25,1.036,-0.0465,-0.0485,-0.0452
146.3,1.036,-0.0465,-0.0475,-0.0472
146.35,1.036,-0.0467,-0.0479,-0.0448
146.4,1.036,-0.0467,-0.0463,-0.0452
146.45,1.036,-0.0473,-0.0485,-0.0456
146.5,1.036,-0.0478,-0.0483,-0.0474
146.55,1.036,-0.0486,-0.0465,-0.0454
146.6,1.036,-0.0467,-0.0485,-0.0476
146.65,1.041,-0.0463,-0.0479,-0.047
146.7,1.041,-0.0459,-0.0477,-0.0458
146.75,1.041,-0.0469,-0.0457,-0.0464
146.8,1.041,-0.0474,-0.0485,-0.0464
146.85,1.041,-0.0461,-0.0473,-0.0462
146.9,1.041,-0.0467,-0.0483,-0.0445
146.95,1.036,-0.0463,-0.0481,-0.047
147,1.041,-0.0478,-0.0485,-0.0458
147.05,1.041,-0.0465,-0.0481,-0.0476
147.1,1.041,-0.0473,-0.0469,-0.0464
147.15,1.046,-0.0478,-0.0465,-0.0472
147.2,1.041,-0.048,-0.0481,-0.0474
147.25,1.046,-0.0474,-0.0483,-0.0474
147.3,1.046,-0.048,-0.0487,-0.0466
147.35,1.046,-0.0482,-0.0481,-0.0472
147.4,1.046,-0.0478,-0.0481,-0.0464
147.45,1.051,-0.0471,-0.0475,-0.0464
147.5,1.046,-0.0482,-0.0479,-0.0458
147.55,1.046,-0.0478,-0.0479,-0.0466
147.6,1.046,-0.048,-0.0479,-0.045
147.65,1.046,-0.0478,-0.0492,-0.0458
147.7,1.046,-0.049,-0.0494,-0.0476
147.75,1.046,-0.0484,-0.0471,-0.0483
147.8,1.046,-0.0471,-0.0479,-0.0466
147.85,1.051,-0.0484,-0.0473,-0.0456
147.9,1.046,-0.0486,-0.0463,-0.045
147.95,1.046,-0.0478,-0.049,-0.0454
148,1.046,-0.0498,-0.0489,-0.0445
148.05,1.051,-0.0474,-0.0481,-0.0458
148.1,1.051,-0.048,-0.0498,-0.0447
148.15,1.056,-0.0473,-0.0487,-0.0445
148.2,1.056,-0.0471,-0.0494,-0.046
148.25,1.056,-0.0473,-0.0485,-0.0456
148.3,1.056,-0.0471,-0.0483,-0.0454
148.35,1.056,-0.0471,-0.0502,-0.045
148.4,1.056,-0.0478,-0.0492,-0.0472
148.45,1.056,-0.0465,-0.0487,-0.0485
148.5,1.056,-0.0471,-0.0469,-0.0454
148.55,1.062,-0.0467,-0.0489,-0.0472
148.6,1.062,-0.0474,-0.0489,-0.0458
148.65,1.062,-0.0469,-0.0483,-0.0481
148.7,1.062,-0.0471,-0.0487,-0.0456
148.75,1.056,-0.0473,-0.0502,-0.0456
148.8,1.056,-0.0476,-0.0487,-0.0458
148.85,1.062,-0.0473,-0.0479,-0.0481
148.9,1.062,-0.0476,-0.0483,-0.0448
148.95,1.062,-0.0473,-0.0485,-0.0474
149,1.062,-0.048,-0.0481,-0.0458
149.05,1.062,-0.0474,-0.0487,-0.047
149.1,1.067,-0.0473,-0.0479,-0.046
149.15,1.062,-0.0471,-0.049,-0.046
149.2,1.072,-0.048,-0.0502,-0.0472
149.25,1.072,-0.0478,-0.0498,-0.047
149.3,1.067,-0.0486,-0.0494,-0.045
149.35,1.072,-0.0496,-0.0477,-0.0458
149.4,1.072,-0.0476,-0.0496,-0.0474
149.45,1.072,-0.0486,-0.0494,-0.0456
149.5,1.072,-0.0469,-0.0496,-0.0474
149.55,1.072,-0.0492,-0.05,-0.0445
149.6,1.072,-0.0473,-0.0485,-0.045
149.65,1.072,-0.0476,-0.0483,-0.0462
149.7,1.072,-0.0474,-0.0487,-0.047
149.75,1.072,-0.0474,-0.0492,-0.0479
149.8,1.072,-0.0498,-0.0512,-0.0474
149.85,1.072,-0.0484,-0.0496,-0.0468
149.9,1.072,-0.0496,-0.0498,-0.0458
149.95,1.072,-0.0482,-0.049,-0.046
150,1.072,-0.0484,-0.0492,-0.0464
150.05,1.078,-0.0484,-0.0492,-0.0456
150.1,1.072,-0.0474,-0.05,-0.0464
150.15,1.078,-0.0492,-0.0487,-0.046
150.2,1.078,-0.05,-0.0502,-0.0462
150.25,1.078,-0.0486,-0.0496,-0.046
150.3,1.083,-0.0492,-0.0492,-0.0458
150.35,1.078,-0.0482,-0.05,-0.0466
150.4,1.078,-0.0482,-0.049,-0.047
150.45,1.083,-0.0474,-0.0496,-0.0464
150.5,1.083,-0.05,-0.0485,-0.0468
150.55,1.078,-0.0484,-0.0487,-0.046
150.6,1.083,-0.0474,-0.0487,-0.0456
150.65,1.083,-0.0492,-0.05,-0.0466
150.7,1.078,-0.048,-0.0502,-0.047
150.75,1.083,-0.048,-0.0492,-0.0464
150.8,1.083,-0.0482,-0.0494,-0.0474
150.85,1.078,-0.0494,-0.0485,-0.0481
150.9,1.083,-0.0498,-0.0508,-0.047
150.95,1.078,-0.0471,-0.0504,-0.0464
151,1.078,-0.0494,-0.0498,-0.0474
151.05,1.078,-0.0486,-0.0487,-0.0452
151.1,1.083,-0.05,-0.05,-0.0452
151.15,1.083,-0.048,-0.0479,-0.045
151.2,1.088,-0.048,-0.0508,-0.0478
151.25,1.088,-0.0492,-0.0483,-0.0464
151.3,1.088,-0.0511,-0.0502,-0.0474
151.35,1.088,-0.0494,-0.0483,-0.0479
151.4,1.088,-0.0474,-0.0498,-0.0485
151.45,1.088,-0.05,-0.0479,-0.0472
151.5,1.088,-0.0494,-0.051,-0.046
151.55,1.083,-0.0498,-0.0504,-0.0481
151.6,1.088,-0.0486,-0.0506,-0.0462
151.65,1.088,-0.0505,-0.049,-0.0464
151.7,1.088,-0.0486,-0.0487,-0.047
151.75,1.088,-0.0494,-0.0502,-0.0474
151.8,1.088,-0.0498,-0.0496,-0.0481
151.85,1.088,-0.0496,-0.0504,-0.0472
151.9,1.088,-0.0494,-0.0512,-0.0489
151.95,1.088,-0.0482,-0.05,-0.046
152,1.088,-0.0511,-0.0473,-0.0478
152.05,1.094,-0.0511,-0.0489,-0.0476
152.1,1.098,-0.0486,-0.0502,-0.0472
152.15,1.098,-0.0502,-0.05,-0.0466
152.2,1.098,-0.0507,-0.0485,-0.0476
152.25,1.098,-0.0496,-0.051,-0.0456
152.3,1.104,-0.0496,-0.0504,-0.0489
152.35,1.094,-0.0498,-0.0496,-0.0479
152.4,1.098,-0.0498,-0.0502,-0.0479
152.45,1.098,-0.05,-0.051,-0.0485
152.5,1.098,-0.0498,-0.051,-0.0485
152.55,1.098,-0.0482,-0.051,-0.0489
152.6,1.098,-0.0502,-0.0502,-0.0483
152.65,1.098,-0.05,-0.0494,-0.0479
152.7,1.104,-0.0496,-0.0508,-0.0485
152.75,1.104,-0.05,-0.0485,-0.0479
152.8,1.104,-0.0494,-0.05,-0.0478
152.85,1.098,-0.0505,-0.0514,-0.0485
152.9,1.098,-0.0496,-0.05,-0.0489
152.95,1.098,-0.05,-0.0506,-0.0472
153,1.098,-0.0505,-0.0518,-0.0485
153.05,1.104,-0.0502,-0.05,-0.047
153.1,1.104,-0.05,-0.0502,-0.0481
153.15,1.104,-0.0509,-0.049,-0.0489
153.2,1.104,-0.0492,-0.0502,-0.0472
153.25,1.109,-0.0509,-0.0516,-0.0476
153.3,1.104,-0.0504,-0.0508,-0.0489
153.35,1.109,-0.0511,-0.0502,-0.0501
153.4,1.109,-0.0498,-0.0498,-0.0479
153.45,1.109,-0.0482,-0.0512,-0.0485
153.5,1.109,-0.0505,-0.0502,-0.0495
153.55,1.109,-0.0505,-0.0512,-0.0476
153.6,1.109,-0.0504,-0.05,-0.0493
153.65,1.109,-0.0505,-0.0508,-0.0497
153.7,1.104,-0.0509,-0.0518,-0.0491
153.75,1.109,-0.0517,-0.0496,-0.0497
153.8,1.109,-0.0511,-0.0506,-0.0483
153.85,1.109,-0.0511,-0.049,-0.0489
153.9,1.114,-0.0504,-0.0506,-0.0485
153.95,1.114,-0.0502,-0.0496,-0.0493
154,1.114,-0.0511,-0.0512,-0.0476
154.05,1.114,-0.0511,-0.0508,-0.0476
154.1,1.12,-0.05,-0.0498,-0.0491
154.15,1.12,-0.0498,-0.0504,-0.0497
154.2,1.12,-0.0511,-0.052,-0.0501
154.25,1.12,-0.0498,-0.0504,-0.0497
154.3,1.12,-0.0494,-0.0498,-0.0489
154.35,1.12,-0.0509,-0.0523,-0.0495
154.4,1.12,-0.0505,-0.0502,-0.0497
154.45,1.12,-0.0517,-0.0508,-0.0499
154.5,1.114,-0.0517,-0.0516,-0.0495
154.55,1.12,-0.0496,-0.0521,-0.0474
154.6,1.12,-0.05,-0.0525,-0.0487
154.65,1.12,-0.0515,-0.0512,-0.0495
154.7,1.125,-0.0511,-0.0496,-0.0497
154.75,1.12,-0.0484,-0.0508,-0.0495
154.8,1.12,-0.0515,-0.0504,-0.0497
154.85,1.125,-0.0521,-0.0514,-0.0483
154.9,1.125,-0.0496,-0.0518,-0.0526
154.95,1.12,-0.0502,-0.0506,-0.0497
155,1.125,-0.0523,-0.051,-0.0509
155.05,1.12,-0.0519,-0.051,-0.0503
155.1,1.125,-0.0515,-0.0506,-0.0522
155.15,1.13,-0.0517,-0.0502,-0.0501
155.2,1.13,-0.0507,-0.0523,-0.0493
155.25,1.125,-0.0521,-0.051,-0.0522
155.3,1.13,-0.0505,-0.0514,-0.0497
155.35,1.125,-0.0511,-0.05,-0.0489
155.4,1.125,-0.0509,-0.0512,-0.0518
155.45,1.125,-0.0521,-0.0504,-0.0495
155.5,1.125,-0.0498,-0.0521,-0.052
155.55,1.125,-0.0517,-0.0498,-0.0497
155.6,1.125,-0.0517,-0.0502,-0.0507
155.65,1.13,-0.0515,-0.0512,-0.0499
155.7,1.13,-0.0502,-0.0512,-0.0495
155.75,1.13,-0.0519,-0.0518,-0.0503
155.8,1.13,-0.0505,-0.0521,-0.0479
155.85,1.13,-0.0521,-0.0508,-0.0516
155.9,1.13,-0.0525,-0.0508,-0.0507
155.95,1.13,-0.0519,-0.0516,-0.0507
156,1.13,-0.0519,-0.0514,-0.0513
156.05,1.13,-0.0507,-0.0512,-0.0501
156.1,1.13,-0.0527,-0.0516,-0.0514
156.15,1.13,-0.0504,-0.0506,-0.0497
156.2,1.13,-0.0523,-0.052,-0.0505
156.25,1.136,-0.0531,-0.0521,-0.0522
156.3,1.141,-0.0519,-0.0533,-0.0514
156.35,1.141,-0.0529,-0.0518,-0.0511
156.4,1.141,-0.0519,-0.0512,-0.0497
156.45,1.141,-0.0515,-0.0506,-0.0487
156.5,1.136,-0.0519,-0.0496,-0.0503
156.55,1.141,-0.0513,-0.0512,-0.0501
156.6,1.136,-0.0513,-0.0508,-0.0513
156.65,1.141,-0.0537,-0.0527,-0.0497
156.7,1.141,-0.0533,-0.0533,-0.0511
156.75,1.141,-0.0517,-0.0525,-0.0511
156.8,1.141,-0.0519,-0.0529,-0.0501
156.85,1.141,-0.0519,-0.0518,-0.0507
156.9,1.136,-0.0519,-0.0518,-0.0513
156.95,1.141,-0.0521,-0.0516,-0.0507
157,1.141,-0.0513,-0.0523,-0.0497
157.05,1.141,-0.0511,-0.0514,-0.0516
157.1,1.141,-0.0529,-0.05,-0.0495
157.15,1.141,-0.0529,-0.0521,-0.0499
157.2,1.146,-0.0527,-0.0521,-0.0487
157.25,1.146,-0.0533,-0.0527,-0.0491
157.3,1.146,-0.0517,-0.0531,-0.0514
157.35,1.146,-0.0517,-0.0518,-0.0495
157.4,1.146,-0.0521,-0.0521,-0.0526
157.45,1.146,-0.0525,-0.0531,-0.0507
157.5,1.146,-0.0517,-0.0523,-0.0503
157.55,1.146,-0.0515,-0.0523,-0.0511
157.6,1.151,-0.0531,-0.0527,-0.0501
157.65,1.146,-0.0525,-0.0518,-0.0511
157.7,1.146,-0.0523,-0.0523,-0.0507
157.75,1.151,-0.0521,-0.0514,-0.0518
157.8,1.151,-0.0505,-0.0525,-0.0513
157.85,1.146,-0.0535,-0.0518,-0.0524
157.9,1.151,-0.0541,-0.0533,-0.0516
157.95,1.146,-0.0515,-0.0539,-0.0503
158,1.151,-0.0531,-0.0516,-0.0493
158.05,1.151,-0.0537,-0.0518,-0.0509
158.1,1.156,-0.0535,-0.0539,-0.052
158.15,1.156,-0.0541,-0.0523,-0.0499
158.2,1.156,-0.0529,-0.0541,-0.0495
158.25,1.162,-0.0527,-0.0531,-0.0513
158.3,1.156,-0.0535,-0.0527,-0.0524
158.35,1.156,-0.0533,-0.0527,-0.0514
158.4,1.162,-0.0531,-0.0525,-0.0528
158.45,1.162,-0.0537,-0.0531,-0.0528
158.5,1.167,-0.0519,-0.0545,-0.0526
158.55,1.167,-0.0533,-0.0516,-0.0507
158.6,1.167,-0.0537,-0.0518,-0.052
158.65,1.167,-0.0542,-0.0543,-0.0516
158.7,1.167,-0.0535,-0.0539,-0.0522
158.75,1.167,-0.0533,-0.0533,-0.0526
158.8,1.167,-0.0537,-0.0529,-0.0528
158.85,1.167,-0.0521,-0.0547,-0.0528
158.9,1.167,-0.0546,-0.0541,-0.0489
158.95,1.167,-0.0542,-0.0531,-0.0489
159,1.167,-0.0531,-0.0537,-0.0511
159.05,1.167,-0.0531,-0.052,-0.0516
159.1,1.172,-0.0539,-0.0547,-0.0522
159.15,1.172,-0.0531,-0.0539,-0.0505
159.2,1.167,-0.0531,-0.0523,-0.0497
159.25,1.167,-0.0527,-0.0533,-0.0509
159.3,1.172,-0.055,-0.0537,-0.0518
159.35,1.172,-0.0537,-0.0533,-0.052
159.4,1.172,-0.0542,-0.0553,-0.0522
159.45,1.172,-0.0541,-0.0531,-0.053
159.5,1.172,-0.0539,-0.0543,-0.0526
159.55,1.178,-0.0531,-0.0551,-0.0516
159.6,1.178,-0.0533,-0.0564,-0.0513
159.65,1.178,-0.0531,-0.0541,-0.0514
159.7,1.183,-0.0542,-0.0547,-0.0532
159.75,1.183,-0.0546,-0.0541,-0.0524
159.8,1.178,-0.0535,-0.0541,-0.0489
159.85,1.178,-0.0539,-0.0533,-0.0501
159.9,1.178,-0.0525,-0.0535,-0.0491
159.95,1.178,-0.0558,-0.0541,-0.0511
160,1.183,-0.0552,-0.0531,-0.0509
160.05,1.178,-0.0552,-0.0541,-0.0516
160.1,1.183,-0.0546,-0.0549,-0.0532
160.15,1.178,-0.0552,-0.0549,-0.0518
160.2,1.183,-0.0546,-0.0531,-0.0516
160.25,1.178,-0.0533,-0.0539,-0.0526
160.3,1.183,-0.056,-0.0553,-0.0497
160.35,1.183,-0.0546,-0.0549,-0.054
160.4,1.188,-0.0556,-0.0527,-0.0534
160.45,1.188,-0.0529,-0.0553,-0.0542
160.5,1.188,-0.0546,-0.0531,-0.0524
160.55,1.188,-0.0546,-0.0533,-0.0542
160.6,1.188,-0.0541,-0.0535,-0.0532
160.65,1.188,-0.0517,-0.0529,-0.0522
160.7,1.188,-0.0537,-0.0555,-0.0511
160.75,1.188,-0.0542,-0.0529,-0.053
160.8,1.188,-0.055,-0.0539,-0.0501
160.85,1.188,-0.0548,-0.0525,-0.0526
160.9,1.188,-0.0548,-0.0539,-0.0532
160.95,1.188,-0.056,-0.0539,-0.0522
161,1.188,-0.0539,-0.0535,-0.0532
161.05,1.188,-0.0542,-0.0549,-0.0511
161.1,1.188,-0.0548,-0.0547,-0.0536
161.15,1.188,-0.0542,-0.0539,-0.0528
161.2,1.209,-0.0521,-0.0539,-0.0542
161.25,1.209,-0.0525,-0.0541,-0.0555
161.3,1.209,-0.0533,-0.0537,-0.0534
161.35,1.209,-0.0529,-0.0555,-0.054
161.4,1.214,-0.0531,-0.0533,-0.0542
161.45,1.214,-0.0539,-0.0539,-0.0536
161.5,1.209,-0.0548,-0.0541,-0.0546
161.55,1.214,-0.055,-0.0543,-0.0551
161.6,1.209,-0.0546,-0.0562,-0.0555
161.65,1.209,-0.0537,-0.0549,-0.0526
161.7,1.209,-0.055,-0.0553,-0.0538
161.75,1.214,-0.055,-0.0549,-0.0514
161.8,1.214,-0.0539,-0.0547,-0.0549
161.85,1.22,-0.0556,-0.0543,-0.052
161.9,1.214,-0.0535,-0.056,-0.053
161.95,1.214,-0.0537,-0.0539,-0.0544
162,1.214,-0.0533,-0.0545,-0.054
162.05,1.214,-0.0537,-0.0547,-0.0532
162.1,1.209,-0.0539,-0.0533,-0.0538
162.15,1.214,-0.0539,-0.0556,-0.0553
162.2,1.22,-0.0546,-0.0537,-0.0544
162.25,1.22,-0.0552,-0.0555,-0.0536
162.3,1.225,-0.0562,-0.0535,-0.0534
162.35,1.225,-0.0548,-0.0556,-0.0524
162.4,1.225,-0.0556,-0.0562,-0.052
162.45,1.225,-0.0535,-0.0556,-0.0538
162.5,1.225,-0.0556,-0.0556,-0.0547
162.55,1.225,-0.0542,-0.0549,-0.0546
162.6,1.225,-0.0548,-0.0551,-0.0546
162.65,1.225,-0.0546,-0.0556,-0.0542
162.7,1.225,-0.0527,-0.0553,-0.0518
162.75,1.225,-0.0546,-0.0547,-0.0546
162.8,1.225,-0.0548,-0.056,-0.0538
162.85,1.225,-0.0552,-0.057,-0.0534
162.9,1.225,-0.0546,-0.0543,-0.0534
162.95,1.225,-0.0542,-0.0533,-0.0518
163,1.225,-0.0541,-0.056,-0.054
163.05,1.225,-0.0546,-0.0558,-0.0536
163.1,1.23,-0.0558,-0.0568,-0.0536
163.15,1.23,-0.0537,-0.0568,-0.0542
163.2,1.23,-0.0546,-0.0555,-0.0547
163.25,1.23,-0.0542,-0.0556,-0.0551
163.3,1.235,-0.0542,-0.0539,-0.0546
163.35,1.23,-0.0542,-0.0539,-0.054
163.4,1.23,-0.0552,-0.0553,-0.0528
163.45,1.235,-0.0548,-0.0537,-0.0551
163.5,1.23,-0.0541,-0.0549,-0.0555
163.55,1.23,-0.0556,-0.0539,-0.054
163.6,1.235,-0.0564,-0.0553,-0.0542
163.65,1.23,-0.0556,-0.0543,-0.0557
163.7,1.235,-0.0552,-0.0539,-0.054
163.75,1.235,-0.0548,-0.0553,-0.053
163.8,1.23,-0.0552,-0.0568,-0.0538
163.85,1.235,-0.055,-0.0537,-0.0528
163.9,1.23,-0.0558,-0.0541,-0.0511
163.95,1.235,-0.0552,-0.0539,-0.0528
164,1.235,-0.0546,-0.0564,-0.0544
164.05,1.235,-0.055,-0.0558,-0.0549
164.1,1.241,-0.0548,-0.0558,-0.0532
164.15,1.241,-0.0552,-0.0547,-0.0542
164.2,1.241,-0.0556,-0.056,-0.0547
164.25,1.241,-0.0552,-0.0564,-0.0542
164.3,1.246,-0.057,-0.0564,-0.0534
164.35,1.246,-0.0556,-0.0572,-0.0542
164.4,1.241,-0.056,-0.0556,-0.0557
164.45,1.246,-0.0548,-0.0553,-0.0547
164.5,1.241,-0.0556,-0.0564,-0.0553
164.55,1.241,-0.0548,-0.0553,-0.0528
164.6,1.246,-0.0548,-0.0549,-0.0551
164.65,1.246,-0.0542,-0.0562,-0.0536
164.7,1.246,-0.0558,-0.056,-0.0553
164.75,1.241,-0.0541,-0.0558,-0.0553
164.8,1.246,-0.0558,-0.0564,-0.0538
164.85,1.246,-0.0556,-0.0574,-0.0544
164.9,1.246,-0.0544,-0.0558,-0.0555
164.95,1.246,-0.0541,-0.0568,-0.0542
165,1.246,-0.0556,-0.0555,-0.0553
165.05,1.246,-0.055,-0.0564,-0.0553
165.1,1.246,-0.0562,-0.0562,-0.0551
165.15,1.251,-0.0558,-0.0566,-0.0553
165.2,1.246,-0.0564,-0.056,-0.0561
165.25,1.251,-0.0554,-0.056,-0.0559
165.3,1.251,-0.0568,-0.0568,-0.0553
165.35,1.251,-0.0548,-0.0558,-0.0557
165.4,1.251,-0.0548,-0.0553,-0.0555
165.45,1.251,-0.0554,-0.0558,-0.0555
165.5,1.251,-0.0558,-0.0555,-0.0565
165.55,1.251,-0.0566,-0.056,-0.0524
165.6,1.251,-0.0556,-0.0564,-0.0551
165.65,1.256,-0.0562,-0.0543,-0.0551
165.7,1.251,-0.0556,-0.0556,-0.0553
165.75,1.251,-0.0556,-0.0568,-0.0546
165.8,1.251,-0.056,-0.0553,-0.0547
165.85,1.251,-0.0564,-0.0578,-0.0559
165.9,1.251,-0.0558,-0.0551,-0.0557
165.95,1.251,-0.0564,-0.0553,-0.0565
166,1.251,-0.0562,-0.0568,-0.0546
166.05,1.251,-0.0552,-0.0562,-0.0542
166.1,1.251,-0.0564,-0.0547,-0.0555
166.15,1.251,-0.0579,-0.057,-0.0559
166.2,1.256,-0.0564,-0.0566,-0.0565
166.25,1.262,-0.0566,-0.0539,-0.0547
166.3,1.256,-0.0558,-0.0562,-0.0561
166.35,1.262,-0.057,-0.0562,-0.0555
166.4,1.267,-0.0558,-0.0564,-0.0544
166.45,1.262,-0.0552,-0.0568,-0.0553
166.5,1.267,-0.0562,-0.0578,-0.0575
166.55,1.267,-0.0542,-0.0576,-0.0559
166.6,1.262,-0.055,-0.0562,-0.0557
166.65,1.267,-0.057,-0.0568,-0.0559
166.7,1.267,-0.0564,-0.0541,-0.054
166.75,1.262,-0.0579,-0.0556,-0.0569
166.8,1.267,-0.0568,-0.0572,-0.0567
166.85,1.262,-0.0548,-0.057,-0.0557
166.9,1.262,-0.0564,-0.057,-0.0542
166.95,1.267,-0.057,-0.0564,-0.0551
167,1.267,-0.0564,-0.0562,-0.0555
167.05,1.262,-0.0573,-0.056,-0.0544
167.1,1.262,-0.0562,-0.0555,-0.0565
167.15,1.267,-0.0548,-0.0566,-0.0553
167.2,1.267,-0.056,-0.0572,-0.0536
167.25,1.267,-0.057,-0.0572,-0.0557
167.3,1.272,-0.0573,-0.056,-0.0565
167.35,1.272,-0.0568,-0.0553,-0.0551
167.4,1.272,-0.0566,-0.0572,-0.0553
167.45,1.272,-0.0577,-0.0555,-0.0546
167.5,1.272,-0.057,-0.056,-0.0563
167.55,1.272,-0.0562,-0.057,-0.0571
167.6,1.272,-0.0575,-0.0558,-0.0534
167.65,1.272,-0.0564,-0.0568,-0.0553
167.7,1.272,-0.0556,-0.0564,-0.0551
167.75,1.272,-0.0577,-0.0558,-0.0565
167.8,1.277,-0.0562,-0.0578,-0.0557
167.85,1.272,-0.0558,-0.0572,-0.0575
167.9,1.272,-0.0562,-0.056,-0.0549
167.95,1.277,-0.057,-0.0572,-0.0565
168,1.272,-0.0558,-0.058,-0.0573
168.05,1.272,-0.0568,-0.0562,-0.0561
168.1,1.272,-0.0564,-0.0574,-0.0565
168.15,1.277,-0.0573,-0.0586,-0.0551
168.2,1.277,-0.0566,-0.0562,-0.0551
168.25,1.283,-0.0558,-0.0574,-0.0573
168.3,1.283,-0.0579,-0.0578,-0.0573
168.35,1.283,-0.0554,-0.0566,-0.0573
168.4,1.283,-0.0566,-0.0562,-0.0573
168.45,1.283,-0.0575,-0.057,-0.0573
168.5,1.283,-0.0573,-0.0572,-0.0557
168.55,1.283,-0.0585,-0.0568,-0.0559
168.6,1.283,-0.0573,-0.0574,-0.0584
168.65,1.283,-0.0566,-0.0578,-0.0573
168.7,1.283,-0.0562,-0.0572,-0.058
168.75,1.283,-0.0581,-0.0578,-0.0577
168.8,1.283,-0.0577,-0.0572,-0.058
168.85,1.288,-0.0577,-0.0572,-0.0577
168.9,1.288,-0.0564,-0.057,-0.058
168.95,1.283,-0.0577,-0.0572,-0.0577
169,1.283,-0.0583,-0.0574,-0.0592
169.05,1.283,-0.056,-0.0558,-0.0584
169.1,1.288,-0.0566,-0.0586,-0.0577
169.15,1.288,-0.0585,-0.0558,-0.0563
169.2,1.288,-0.0585,-0.0588,-0.0578
169.25,1.288,-0.0568,-0.0578,-0.0586
169.3,1.288,-0.0585,-0.057,-0.0569
169.35,1.293,-0.0568,-0.0578,-0.0588
169.4,1.293,-0.0583,-0.0558,-0.0569
169.45,1.288,-0.0581,-0.0586,-0.0569
169.5,1.293,-0.057,-0.0568,-0.0565
169.55,1.293,-0.0581,-0.0562,-0.058
169.6,1.288,-0.0577,-0.0574,-0.0592
169.65,1.293,-0.0564,-0.057,-0.0569
169.7,1.293,-0.0583,-0.0589,-0.0561
169.75,1.293,-0.0575,-0.0568,-0.058
169.8,1.293,-0.0566,-0.0568,-0.0563
169.85,1.288,-0.0573,-0.0574,-0.058
169.9,1.293,-0.0581,-0.0578,-0.0586
169.95,1.293,-0.0581,-0.0578,-0.0567
170,1.293,-0.0587,-0.0572,-0.0569
170.05,1.288,-0.0581,-0.0568,-0.0592
170.1,1.293,-0.0573,-0.0562,-0.0565
170.15,1.293,-0.0583,-0.0556,-0.058
170.2,1.293,-0.0573,-0.0556,-0.0582
170.25,1.298,-0.0564,-0.0588,-0.0569
170.3,1.298,-0.0583,-0.0572,-0.0588
170.35,1.293,-0.0589,-0.056,-0.0575
170.4,1.304,-0.0587,-0.0588,-0.0586
170.45,1.298,-0.0587,-0.0588,-0.0582
170.5,1.298,-0.0577,-0.0593,-0.0588
170.55,1.304,-0.0587,-0.0578,-0.059
170.6,1.298,-0.0579,-0.0593,-0.06
170.65,1.298,-0.0585,-0.0586,-0.0578
170.7,1.304,-0.0595,-0.0572,-0.0592
170.75,1.298,-0.0572,-0.0582,-0.0577
170.8,1.304,-0.0587,-0.0593,-0.0575
170.85,1.298,-0.0585,-0.0591,-0.0577
170.9,1.304,-0.0587,-0.0576,-0.058
170.95,1.304,-0.0583,-0.0582,-0.0582
171,1.298,-0.0566,-0.0586,-0.0584
171.05,1.304,-0.0575,-0.0589,-0.0573
171.1,1.309,-0.0595,-0.0586,-0.059
171.15,1.309,-0.0577,-0.0589,-0.0571
171.2,1.309,-0.0595,-0.0586,-0.0573
171.25,1.309,-0.0587,-0.0564,-0.0586
171.3,1.309,-0.0587,-0.0578,-0.0594
171.35,1.309,-0.0583,-0.0582,-0.0598
171.4,1.309,-0.0575,-0.057,-0.0598
171.45,1.309,-0.0591,-0.0584,-0.0598
171.5,1.314,-0.0575,-0.0574,-0.058
171.55,1.309,-0.0595,-0.0591,-0.0575
171.6,1.309,-0.057,-0.0589,-0.0586
171.65,1.314,-0.0603,-0.0597,-0.0575
171.7,1.314,-0.0577,-0.0578,-0.06
171.75,1.309,-0.0595,-0.0578,-0.0584
171.8,1.314,-0.0587,-0.0574,-0.0586
171.85,1.314,-0.0587,-0.0568,-0.0588
171.9,1.314,-0.0601,-0.0572,-0.058
171.95,1.314,-0.0577,-0.0586,-0.058
172,1.314,-0.0587,-0.0584,-0.0575
172.05,1.314,-0.0599,-0.0588,-0.0582
172.1,1.314,-0.0591,-0.058,-0.0584
172.15,1.314,-0.0587,-0.0595,-0.0578
172.2,1.309,-0.0597,-0.0582,-0.0584
172.25,1.314,-0.0591,-0.0586,-0.0596
172.3,1.314,-0.0595,-0.0584,-0.0612
172.35,1.32,-0.0603,-0.0578,-0.0604
172.4,1.32,-0.0585,-0.0595,-0.0598
172.45,1.325,-0.061,-0.0593,-0.0596
172.5,1.32,-0.0587,-0.0591,-0.0586
172.55,1.325,-0.0601,-0.0586,-0.0584
172.6,1.325,-0.0587,-0.0588,-0.0612
172.65,1.325,-0.0593,-0.0591,-0.059
172.7,1.325,-0.0593,-0.0593,-0.0584
172.75,1.325,-0.0587,-0.0584,-0.0582
172.8,1.325,-0.0572,-0.0589,-0.0575
172.85,1.325,-0.0585,-0.0595,-0.0584
172.9,1.325,-0.0595,-0.0588,-0.0582
172.95,1.325,-0.0572,-0.0574,-0.0592
173,1.33,-0.0589,-0.0589,-0.0598
173.05,1.325,-0.0591,-0.0589,-0.0578
173.1,1.325,-0.0601,-0.0589,-0.059
173.15,1.325,-0.0593,-0.0586,-0.0571
173.2,1.325,-0.0595,-0.0603,-0.0588
173.25,1.325,-0.0587,-0.0582,-0.0571
173.3,1.325,-0.0591,-0.0582,-0.0598
173.35,1.325,-0.0599,-0.0595,-0.0598
173.4,1.325,-0.0583,-0.0586,-0.059
173.45,1.33,-0.0595,-0.0586,-0.058
173.5,1.33,-0.061,-0.0597,-0.0584
173.55,1.33,-0.0591,-0.0595,-0.0582
173.6,1.335,-0.0597,-0.0564,-0.0606
173.65,1.335,-0.0595,-0.0589,-0.0598
173.7,1.335,-0.0595,-0.0591,-0.0598
173.75,1.33,-0.0597,-0.0595,-0.0604
173.8,1.33,-0.0583,-0.0603,-0.0584
173.85,1.335,-0.0599,-0.0597,-0.058
173.9,1.335,-0.0601,-0.0584,-0.0604
173.95,1.335,-0.0591,-0.0611,-0.0602
174,1.335,-0.0614,-0.0603,-0.06
174.05,1.335,-0.0599,-0.0613,-0.058
174.1,1.335,-0.0595,-0.0589,-0.0594
174.15,1.33,-0.0601,-0.0605,-0.0584
174.2,1.335,-0.0603,-0.0591,-0.0586
174.25,1.335,-0.0599,-0.0568,-0.0584
174.3,1.335,-0.0614,-0.0595,-0.0596
174.35,1.341,-0.0591,-0.0586,-0.058
174.4,1.341,-0.0597,-0.0599,-0.0598
174.45,1.346,-0.0589,-0.0595,-0.0604
174.5,1.341,-0.0595,-0.0599,-0.0604
174.55,1.346,-0.0579,-0.0617,-0.0604
174.6,1.351,-0.0599,-0.0586,-0.0594
174.65,1.351,-0.0614,-0.0617,-0.0613
174.7,1.351,-0.0616,-0.0603,-0.0584
174.75,1.351,-0.0614,-0.0626,-0.061
174.8,1.351,-0.0612,-0.0597,-0.0615
174.85,1.356,-0.0603,-0.0611,-0.061
174.9,1.351,-0.0599,-0.0617,-0.0621
174.95,1.351,-0.0618,-0.0615,-0.0594
175,1.351,-0.0606,-0.0597,-0.0604
175.05,1.351,-0.0604,-0.0603,-0.0606
175.1,1.351,-0.0601,-0.0611,-0.0613
175.15,1.351,-0.0608,-0.0624,-0.0596
175.2,1.351,-0.0608,-0.0605,-0.0608
175.25,1.351,-0.0599,-0.0593,-0.0604
175.3,1.356,-0.0589,-0.0605,-0.061
175.35,1.356,-0.061,-0.0617,-0.0615
175.4,1.356,-0.0604,-0.0601,-0.0606
175.45,1.356,-0.0614,-0.0599,-0.0598
175.5,1.356,-0.0599,-0.0593,-0.0604
175.55,1.356,-0.0618,-0.0603,-0.0598
175.6,1.356,-0.0618,-0.0599,-0.06
175.65,1.362,-0.0618,-0.0599,-0.0613
175.7,1.362,-0.0612,-0.0591,-0.0604
175.75,1.362,-0.0604,-0.0603,-0.0627
175.8,1.362,-0.061,-0.0603,-0.0606
175.85,1.362,-0.0616,-0.0591,-0.0598
175.9,1.367,-0.062,-0.0595,-0.0606
175.95,1.362,-0.0614,-0.0595,-0.061
176,1.362,-0.0614,-0.0597,-0.0612
176.05,1.362,-0.0614,-0.0609,-0.0602
176.1,1.362,-0.0606,-0.0624,-0.0598
176.15,1.356,-0.0618,-0.0601,-0.0613
176.2,1.356,-0.0614,-0.0613,-0.0596
176.25,1.356,-0.0614,-0.0601,-0.0615
176.3,1.367,-0.0624,-0.0613,-0.0606
176.35,1.367,-0.0612,-0.0609,-0.0617
176.4,1.372,-0.0628,-0.0609,-0.0619
176.45,1.372,-0.0618,-0.0607,-0.0621
176.5,1.367,-0.0626,-0.0615,-0.0623
176.55,1.372,-0.0614,-0.0617,-0.0625
176.6,1.372,-0.0618,-0.0619,-0.0606
176.65,1.372,-0.0628,-0.0615,-0.0615
176.7,1.372,-0.0612,-0.0621,-0.0612
176.75,1.372,-0.0618,-0.0619,-0.0627
176.8,1.372,-0.0618,-0.0611,-0.0623
176.85,1.372,-0.062,-0.058,-0.0612
176.9,1.372,-0.0612,-0.0617,-0.0612
176.95,1.372,-0.0614,-0.0607,-0.0615
177,1.372,-0.0614,-0.0619,-0.0619
177.05,1.372,-0.0622,-0.0597,-0.0606
177.1,1.372,-0.061,-0.0615,-0.0629
177.15,1.372,-0.0606,-0.0605,-0.0613
177.2,1.372,-0.0612,-0.0613,-0.0615
177.25,1.377,-0.0626,-0.0615,-0.0625
177.3,1.377,-0.0614,-0.0619,-0.0613
177.35,1.377,-0.0618,-0.0601,-0.0615
177.4,1.377,-0.0614,-0.0609,-0.0631
177.45,1.377,-0.061,-0.0615,-0.0621
177.5,1.383,-0.0612,-0.0609,-0.061
177.55,1.377,-0.0612,-0.0615,-0.0615
177.6,1.383,-0.0628,-0.0611,-0.0621
177.65,1.377,-0.0626,-0.0622,-0.0606
177.7,1.383,-0.061,-0.0622,-0.0602
177.75,1.377,-0.0604,-0.0605,-0.0604
177.8,1.383,-0.0604,-0.0605,-0.0604
177.85,1.377,-0.0622,-0.0617,-0.0615
177.9,1.377,-0.0618,-0.0615,-0.0627
177.95,1.383,-0.0626,-0.0603,-0.0623
178,1.377,-0.0632,-0.0615,-0.0604
178.05,1.377,-0.0603,-0.0626,-0.0606
178.1,1.383,-0.0614,-0.0613,-0.0598
178.15,1.377,-0.0618,-0.0607,-0.0615
178.2,1.383,-0.0626,-0.0621,-0.0608
178.25,1.383,-0.0626,-0.0619,-0.0625
178.3,1.388,-0.0616,-0.0615,-0.0619
178.35,1.393,-0.0616,-0.0621,-0.0625
178.4,1.393,-0.0626,-0.0621,-0.0629
178.45,1.393,-0.0624,-0.0624,-0.0635
178.5,1.388,-0.0635,-0.063,-0.0625
178.55,1.388,-0.063,-0.0628,-0.061
178.6,1.393,-0.063,-0.0605,-0.0604
178.65,1.393,-0.0632,-0.0619,-0.0621
178.7,1.393,-0.0639,-0.0605,-0.0631
178.75,1.393,-0.0626,-0.0611,-0.0619
178.8,1.393,-0.0628,-0.063,-0.0606
178.85,1.393,-0.0614,-0.0619,-0.0629
178.9,1.393,-0.0634,-0.0619,-0.0631
178.95,1.393,-0.0626,-0.0646,-0.0612
179,1.393,-0.063,-0.063,-0.0621
179.05,1.393,-0.0622,-0.0624,-0.061
179.1,1.398,-0.0632,-0.0611,-0.061
179.15,1.398,-0.0632,-0.0607,-0.0625
179.2,1.398,-0.0626,-0.0622,-0.0625
179.25,1.398,-0.0637,-0.0617,-0.0613
179.3,1.398,-0.0626,-0.0621,-0.0621
179.35,1.398,-0.063,-0.0626,-0.0631
179.4,1.404,-0.0635,-0.064,-0.0629
179.45,1.398,-0.063,-0.0626,-0.0629
179.5,1.404,-0.0635,-0.0611,-0.0619
179.55,1.404,-0.0626,-0.064,-0.0631
179.6,1.404,-0.0635,-0.0619,-0.0621
179.65,1.404,-0.0635,-0.0646,-0.0615
179.7,1.404,-0.0628,-0.0609,-0.0631
179.75,1.404,-0.062,-0.0615,-0.0637
179.8,1.404,-0.0624,-0.0619,-0.0621
179.85,1.404,-0.0628,-0.0626,-0.0627
179.9,1.398,-0.063,-0.0617,-0.0612
179.95,1.398,-0.063,-0.0632,-0.0621
180,1.398,-0.0626,-0.063,-0.0612
180.05,1.398,-0.063,-0.064,-0.0619
180.1,1.398,-0.0618,-0.0642,-0.0627
180.15,1.404,-0.0628,-0.0617,-0.0612
180.2,1.404,-0.0639,-0.0646,-0.0635
180.25,1.409,-0.0618,-0.0632,-0.0629
180.3,1.409,-0.0626,-0.064,-0.0643
180.35,1.409,-0.0637,-0.0617,-0.0637
180.4,1.409,-0.0643,-0.0626,-0.0631
180.45,1.409,-0.0628,-0.0619,-0.0629
180.5,1.409,-0.0624,-0.0621,-0.0621
180.55,1.409,-0.0634,-0.0621,-0.0627
180.6,1.414,-0.0635,-0.0615,-0.0637
180.65,1.414,-0.0639,-0.0626,-0.0619
180.7,1.414,-0.0635,-0.0621,-0.0625
180.75,1.409,-0.0634,-0.0626,-0.0627
180.8,1.414,-0.063,-0.0626,-0.0629
180.85,1.414,-0.0641,-0.0621,-0.0643
180.9,1.414,-0.0635,-0.0628,-0.0641
180.95,1.409,-0.0635,-0.0632,-0.0635
181,1.409,-0.062,-0.0611,-0.0631
181.05,1.414,-0.0626,-0.0632,-0.0619
181.1,1.414,-0.0645,-0.0624,-0.0627
181.15,1.419,-0.0641,-0.0624,-0.0633
181.2,1.414,-0.0634,-0.0622,-0.0627
181.25,1.419,-0.0637,-0.0617,-0.0625
181.3,1.419,-0.0635,-0.065,-0.0643
181.35,1.419,-0.0641,-0.065,-0.0625
181.4,1.419,-0.0634,-0.0624,-0.0627
181.45,1.414,-0.0639,-0.0656,-0.0646
181.5,1.419,-0.0634,-0.064,-0.0615
181.55,1.419,-0.0645,-0.065,-0.0617
181.6,1.419,-0.0634,-0.0632,-0.0623
181.65,1.419,-0.0639,-0.0656,-0.0641
181.7,1.419,-0.0641,-0.063,-0.0629
181.75,1.419,-0.0641,-0.0644,-0.0635
181.8,1.419,-0.0643,-0.0632,-0.0625
181.85,1.419,-0.0639,-0.0642,-0.0643
181.9,1.419,-0.0618,-0.0626,-0.0645
181.95,1.419,-0.0634,-0.0632,-0.0639
182,1.419,-0.0628,-0.0644,-0.0635
182.05,1.419,-0.0635,-0.0626,-0.0635
182.1,1.419,-0.0645,-0.063,-0.0625
182.15,1.419,-0.0645,-0.0642,-0.0637
182.2,1.419,-0.063,-0.0626,-0.0627
182.25,1.425,-0.0643,-0.0648,-0.0631
182.3,1.425,-0.0641,-0.0657,-0.0627
182.35,1.425,-0.0651,-0.0663,-0.065
182.4,1.43,-0.0645,-0.0656,-0.0633
182.45,1.43,-0.0647,-0.0644,-0.0613
182.5,1.425,-0.0637,-0.0646,-0.0629
182.55,1.435,-0.063,-0.064,-0.0637
182.6,1.43,-0.062,-0.0657,-0.0606
182.65,1.43,-0.0634,-0.0642,-0.0631
182.7,1.425,-0.0643,-0.0648,-0.0637
182.75,1.43,-0.0637,-0.0624,-0.0633
182.8,1.435,-0.0635,-0.0626,-0.0639
182.85,1.43,-0.0632,-0.0669,-0.0631
182.9,1.435,-0.0649,-0.0659,-0.0629
182.95,1.435,-0.0639,-0.064,-0.0635
183,1.435,-0.0628,-0.0648,-0.0635
183.05,1.435,-0.0647,-0.0663,-0.0633
183.1,1.43,-0.063,-0.0648,-0.0631
183.15,1.43,-0.063,-0.0657,-0.0629
183.2,1.435,-0.0657,-0.0648,-0.0627
183.25,1.435,-0.0635,-0.0657,-0.0641
183.3,1.435,-0.0645,-0.0654,-0.0615
183.35,1.435,-0.0639,-0.0654,-0.065
183.4,1.441,-0.0649,-0.0656,-0.0625
183.45,1.441,-0.0643,-0.0642,-0.0631
183.5,1.441,-0.0643,-0.0652,-0.0637
183.55,1.441,-0.0643,-0.0659,-0.0641
183.6,1.441,-0.0637,-0.0659,-0.0633
183.65,1.441,-0.0635,-0.0646,-0.0633
183.7,1.441,-0.0641,-0.0644,-0.0627
183.75,1.441,-0.0634,-0.0659,-0.0643
183.8,1.441,-0.0645,-0.0665,-0.0635
183.85,1.441,-0.0661,-0.0657,-0.0627
183.9,1.441,-0.0641,-0.0656,-0.0633
183.95,1.441,-0.0643,-0.0657,-0.0621
184,1.441,-0.0635,-0.0644,-0.0623
184.05,1.441,-0.0659,-0.0652,-0.0635
184.1,1.441,-0.0645,-0.0665,-0.0641
184.15,1.441,-0.0641,-0.065,-0.0625
184.2,1.441,-0.0643,-0.065,-0.0637
184.25,1.451,-0.0659,-0.0663,-0.0641
184.3,1.446,-0.0649,-0.0667,-0.0631
184.35,1.446,-0.0659,-0.0659,-0.0656
184.4,1.451,-0.0653,-0.0661,-0.0645
184.45,1.451,-0.0641,-0.0665,-0.0633
184.5,1.451,-0.0639,-0.0671,-0.0648
184.55,1.451,-0.0641,-0.0663,-0.0645
184.6,1.451,-0.0641,-0.0644,-0.0637
184.65,1.451,-0.0653,-0.0675,-0.0645
184.7,1.451,-0.0657,-0.0657,-0.0639
184.75,1.456,-0.0657,-0.0656,-0.0641
184.8,1.451,-0.0639,-0.0657,-0.0635
184.85,1.446,-0.0653,-0.0657,-0.0633
184.9,1.451,-0.0663,-0.0663,-0.0645
184.95,1.451,-0.0643,-0.0657,-0.0641
185,1.451,-0.0635,-0.0671,-0.0627
185.05,1.451,-0.0653,-0.065,-0.0641
185.1,1.451,-0.0645,-0.0681,-0.0639
185.15,1.456,-0.0653,-0.0656,-0.0643
185.2,1.451,-0.0637,-0.0665,-0.065
185.25,1.451,-0.0647,-0.0665,-0.0645
185.3,1.451,-0.0653,-0.0624,-0.0621
185.35,1.456,-0.0641,-0.0661,-0.0633
185.4,1.456,-0.0637,-0.0665,-0.0635
185.45,1.456,-0.0655,-0.0654,-0.0643
185.5,1.456,-0.0643,-0.0663,-0.0641
185.55,1.461,-0.0659,-0.0673,-0.0645
185.6,1.461,-0.0634,-0.0669,-0.065
185.65,1.461,-0.0655,-0.0665,-0.0635
185.7,1.461,-0.0651,-0.0648,-0.0645
185.75,1.461,-0.0649,-0.0659,-0.0652
185.8,1.456,-0.0647,-0.0657,-0.065
185.85,1.461,-0.0645,-0.0654,-0.0646
185.9,1.461,-0.0641,-0.0681,-0.0646
185.95,1.461,-0.0635,-0.0657,-0.0656
186,1.461,-0.0643,-0.0657,-0.0648
186.05,1.461,-0.0641,-0.0663,-0.0652
186.1,1.461,-0.0643,-0.0667,-0.0656
186.15,1.461,-0.0641,-0.065,-0.0641
186.2,1.461,-0.0647,-0.0665,-0.0658
186.25,1.461,-0.0649,-0.0663,-0.066
186.3,1.461,-0.0639,-0.0663,-0.0643
186.35,1.461,-0.0645,-0.0652,-0.065
186.4,1.461,-0.0641,-0.065,-0.0646
186.45,1.461,-0.0641,-0.0669,-0.0643
186.5,1.461,-0.0657,-0.0656,-0.0615
186.55,1.461,-0.0643,-0.0669,-0.0637
186.6,1.461,-0.0649,-0.0679,-0.065
186.65,1.461,-0.0641,-0.0671,-0.0646
186.7,1.461,-0.0647,-0.0657,-0.0656
186.75,1.461,-0.0637,-0.0675,-0.0633
186.8,1.467,-0.0641,-0.0665,-0.0643
186.85,1.467,-0.0649,-0.0675,-0.0666
186.9,1.467,-0.0635,-0.0681,-0.066
186.95,1.467,-0.0647,-0.0665,-0.0641
187,1.461,-0.0655,-0.0648,-0.0656
187.05,1.467,-0.0639,-0.0667,-0.0652
187.1,1.467,-0.0637,-0.0665,-0.0639
187.15,1.467,-0.0645,-0.0659,-0.0641
187.2,1.467,-0.0655,-0.0671,-0.0656
187.25,1.467,-0.0655,-0.0673,-0.0652
187.3,1.467,-0.0661,-0.0661,-0.0658
187.35,1.467,-0.0634,-0.0679,-0.0645
187.4,1.467,-0.0655,-0.0657,-0.0637
187.45,1.472,-0.0649,-0.0673,-0.0643
187.5,1.467,-0.0653,-0.0657,-0.0641
187.55,1.467,-0.0645,-0.0671,-0.0646
187.6,1.467,-0.0632,-0.0669,-0.0645
187.65,1.467,-0.0639,-0.0671,-0.0656
187.7,1.472,-0.0653,-0.0648,-0.0637
187.75,1.472,-0.0637,-0.0665,-0.0666
187.8,1.467,-0.0645,-0.0648,-0.0645
187.85,1.467,-0.0659,-0.0667,-0.0676
187.9,1.472,-0.0653,-0.0665,-0.0662
187.95,1.472,-0.0651,-0.0661,-0.0652
188,1.467,-0.0651,-0.0665,-0.0652
188.05,1.467,-0.0645,-0.0657,-0.0641
188.1,1.472,-0.063,-0.0663,-0.0652
188.15,1.472,-0.0661,-0.0671,-0.0652
188.2,1.472,-0.0651,-0.0661,-0.066
188.25,1.467,-0.0645,-0.0654,-0.0648
188.3,1.467,-0.0665,-0.0656,-0.0637
188.35,1.472,-0.0665,-0.0673,-0.0641
188.4,1.477,-0.0651,-0.0661,-0.066
188.45,1.477,-0.0653,-0.0646,-0.0645
188.5,1.477,-0.0663,-0.0677,-0.0672
188.55,1.477,-0.0657,-0.0667,-0.0646
188.6,1.477,-0.0655,-0.0665,-0.066
188.65,1.477,-0.0657,-0.0667,-0.0652
188.7,1.477,-0.0645,-0.0671,-0.0652
188.75,1.477,-0.0669,-0.0656,-0.0645
188.8,1.477,-0.0663,-0.0673,-0.0666
188.85,1.477,-0.0667,-0.0679,-0.0643
188.9,1.477,-0.0655,-0.0673,-0.0654
188.95,1.477,-0.0637,-0.0671,-0.0662
189,1.477,-0.0659,-0.0661,-0.0668
189.05,1.477,-0.0663,-0.0665,-0.0668
189.1,1.477,-0.0651,-0.0667,-0.0648
189.15,1.477,-0.0667,-0.0661,-0.0662
189.2,1.477,-0.0657,-0.0669,-0.0645
189.25,1.477,-0.0661,-0.0671,-0.0639
189.3,1.483,-0.0655,-0.0671,-0.0645
189.35,1.477,-0.0653,-0.0673,-0.0643
189.4,1.477,-0.0661,-0.0669,-0.0664
189.45,1.483,-0.0665,-0.0663,-0.0635
189.5,1.483,-0.0649,-0.0663,-0.066
189.55,1.483,-0.0651,-0.0671,-0.066
189.6,1.488,-0.0651,-0.0665,-0.0658
189.65,1.493,-0.0663,-0.0665,-0.0676
189.7,1.488,-0.0663,-0.0673,-0.0677
189.75,1.483,-0.0655,-0.0665,-0.0662
189.8,1.488,-0.0674,-0.0683,-0.0664
189.85,1.488,-0.0665,-0.0659,-0.0666
189.9,1.493,-0.0674,-0.0671,-0.0676
189.95,1.488,-0.0678,-0.0661,-0.066
190,1.493,-0.0653,-0.0683,-0.0658
190.05,1.493,-0.0657,-0.0681,-0.0652
190.1,1.493,-0.067,-0.0665,-0.0674
190.15,1.488,-0.0665,-0.0681,-0.0666
190.2,1.483,-0.0667,-0.0667,-0.0668
190.25,1.483,-0.0649,-0.0663,-0.0656
190.3,1.493,-0.0655,-0.0671,-0.066
190.35,1.488,-0.0651,-0.0675,-0.066
190.4,1.488,-0.0655,-0.0671,-0.0658
190.45,1.488,-0.0665,-0.0685,-0.0666
190.5,1.483,-0.0657,-0.0671,-0.0652
190.55,1.488,-0.067,-0.0657,-0.0662
190.6,1.488,-0.0655,-0.0661,-0.065
190.65,1.488,-0.0667,-0.0673,-0.0656
190.7,1.493,-0.067,-0.0663,-0.0656
190.75,1.493,-0.0663,-0.0654,-0.066
190.8,1.493,-0.0659,-0.0663,-0.0668
190.85,1.493,-0.0657,-0.0656,-0.0652
190.9,1.493,-0.0667,-0.0648,-0.0643
190.95,1.493,-0.0661,-0.0657,-0.0658
191,1.488,-0.0663,-0.0669,-0.0654
191.05,1.493,-0.0667,-0.0665,-0.0677
191.1,1.493,-0.0653,-0.0681,-0.0672
191.15,1.488,-0.0643,-0.0688,-0.0662
191.2,1.488,-0.0647,-0.0671,-0.0672
191.25,1.493,-0.0653,-0.0657,-0.0656
191.3,1.498,-0.0651,-0.0661,-0.0656
191.35,1.493,-0.0661,-0.0677,-0.0668
191.4,1.498,-0.0655,-0.0671,-0.0652
191.45,1.498,-0.0667,-0.0671,-0.0681
191.5,1.503,-0.0667,-0.0667,-0.066
191.55,1.498,-0.0676,-0.0687,-0.0674
191.6,1.498,-0.0674,-0.0687,-0.0681
191.65,1.498,-0.0659,-0.0675,-0.0662
191.7,1.503,-0.0672,-0.0669,-0.0658
191.75,1.498,-0.0657,-0.0679,-0.0666
191.8,1.503,-0.0667,-0.0675,-0.0676
191.85,1.503,-0.0661,-0.0671,-0.0685
191.9,1.503,-0.0653,-0.0679,-0.0668
191.95,1.498,-0.0665,-0.0683,-0.0674
192,1.503,-0.0674,-0.0677,-0.0666
192.05,1.498,-0.0659,-0.0681,-0.0676
192.1,1.503,-0.0669,-0.0685,-0.0676
192.15,1.503,-0.0674,-0.0667,-0.0672
192.2,1.503,-0.0667,-0.0683,-0.0662
192.25,1.503,-0.0665,-0.0685,-0.0687
192.3,1.503,-0.0649,-0.0683,-0.0652
192.35,1.503,-0.0669,-0.0671,-0.0666
192.4,1.503,-0.0663,-0.0681,-0.0687
192.45,1.503,-0.0667,-0.0675,-0.0672
192.5,1.503,-0.0659,-0.0673,-0.0674
192.55,1.503,-0.0659,-0.0675,-0.066
192.6,1.503,-0.0661,-0.0673,-0.066
192.65,1.498,-0.0669,-0.0688,-0.0662
192.7,1.503,-0.0659,-0.0673,-0.0658
192.75,1.503,-0.0669,-0.0673,-0.0672
192.8,1.498,-0.0663,-0.0652,-0.0656
192.85,1.503,-0.0672,-0.0657,-0.0668
192.9,1.503,-0.0674,-0.0667,-0.0683
192.95,1.498,-0.0678,-0.0671,-0.0666
193,1.503,-0.0669,-0.0671,-0.0637
193.05,1.503,-0.067,-0.0694,-0.0668
193.1,1.503,-0.0669,-0.0694,-0.0658
193.15,1.503,-0.0659,-0.0669,-0.0658
193.2,1.503,-0.0661,-0.0665,-0.0666
193.25,1.503,-0.0659,-0.0673,-0.0666
193.3,1.503,-0.0676,-0.069,-0.0664
193.35,1.509,-0.0667,-0.0681,-0.0656
193.4,1.503,-0.0676,-0.0671,-0.0676
193.45,1.503,-0.0667,-0.0692,-0.065
193.5,1.503,-0.0672,-0.0687,-0.0666
193.55,1.509,-0.0674,-0.0694,-0.0643
193.6,1.509,-0.0657,-0.0688,-0.0654
193.65,1.509,-0.0672,-0.0681,-0.0668
193.7,1.509,-0.0672,-0.0663,-0.0666
193.75,1.509,-0.067,-0.0679,-0.0668
193.8,1.509,-0.0657,-0.0683,-0.0676
193.85,1.509,-0.0676,-0.0681,-0.0666
193.9,1.509,-0.0678,-0.0681,-0.0666
193.95,1.503,-0.0674,-0.0675,-0.0656
194,1.509,-0.0657,-0.0687,-0.067
194.05,1.509,-0.0663,-0.0685,-0.065
194.1,1.509,-0.0676,-0.0696,-0.0672
194.15,1.509,-0.0676,-0.0687,-0.0658
194.2,1.509,-0.0661,-0.0687,-0.0658
194.25,1.509,-0.069,-0.0681,-0.0641
194.3,1.509,-0.0682,-0.0681,-0.0658
194.35,1.509,-0.0678,-0.0671,-0.0666
194.4,1.509,-0.069,-0.0679,-0.0674
194.45,1.509,-0.0674,-0.0685,-0.0664
194.5,1.509,-0.0676,-0.0681,-0.0668
194.55,1.509,-0.068,-0.0677,-0.0672
194.6,1.509,-0.068,-0.0679,-0.0666
194.65,1.509,-0.0674,-0.0675,-0.0668
194.7,1.509,-0.0678,-0.0677,-0.0656
194.75,1.509,-0.0674,-0.0667,-0.0672
194.8,1.509,-0.0688,-0.0671,-0.0662
194.85,1.509,-0.0663,-0.0675,-0.0652
194.9,1.509,-0.0678,-0.0677,-0.0676
194.95,1.509,-0.0684,-0.0688,-0.0658
195,1.509,-0.0672,-0.0683,-0.0674
195.05,1.509,-0.0674,-0.0694,-0.0656
195.1,1.509,-0.068,-0.0681,-0.0677
195.15,1.514,-0.0663,-0.069,-0.066
195.2,1.514,-0.0674,-0.0688,-0.0676
195.25,1.519,-0.0686,-0.07,-0.066
195.3,1.514,-0.0688,-0.0681,-0.0679
195.35,1.519,-0.0672,-0.0673,-0.0676
195.4,1.519,-0.0674,-0.0687,-0.0674
195.45,1.519,-0.068,-0.0679,-0.067
195.5,1.519,-0.0674,-0.0675,-0.0668
195.55,1.519,-0.0674,-0.0688,-0.067
195.6,1.519,-0.069,-0.0688,-0.0685
195.65,1.519,-0.068,-0.0677,-0.0676
195.7,1.519,-0.0669,-0.0698,-0.0664
195.75,1.525,-0.0682,-0.0679,-0.0681
195.8,1.519,-0.0672,-0.0685,-0.066
195.85,1.519,-0.0684,-0.069,-0.0679
195.9,1.525,-0.0667,-0.0683,-0.0674
195.95,1.519,-0.0672,-0.071,-0.0664
196,1.519,-0.0665,-0.0688,-0.0677
196.05,1.519,-0.068,-0.0688,-0.0668
196.1,1.525,-0.0674,-0.0683,-0.0679
196.15,1.519,-0.0672,-0.0694,-0.0662
196.2,1.519,-0.0682,-0.0698,-0.0666
196.25,1.525,-0.0667,-0.069,-0.0683
196.3,1.525,-0.0676,-0.0679,-0.0666
196.35,1.519,-0.0676,-0.0694,-0.0683
196.4,1.525,-0.068,-0.0681,-0.067
196.45,1.525,-0.0655,-0.0698,-0.0687
196.5,1.519,-0.0688,-0.0685,-0.0676
196.55,1.519,-0.068,-0.0688,-0.0648
196.6,1.519,-0.0682,-0.0704,-0.0668
196.65,1.514,-0.068,-0.0675,-0.0656
196.7,1.519,-0.0676,-0.0687,-0.0658
196.75,1.519,-0.0674,-0.0702,-0.0676
196.8,1.519,-0.0703,-0.0681,-0.0676
196.85,1.519,-0.0688,-0.0681,-0.0666
196.9,1.519,-0.0692,-0.0679,-0.0674
196.95,1.519,-0.0669,-0.0706,-0.0666
197,1.519,-0.0676,-0.0702,-0.0666
197.05,1.519,-0.068,-0.0687,-0.0666
197.1,1.519,-0.0688,-0.0671,-0.0672
197.15,1.525,-0.067,-0.0696,-0.066
197.2,1.525,-0.068,-0.0679,-0.0687
197.25,1.525,-0.0676,-0.0671,-0.065
197.3,1.525,-0.0661,-0.0692,-0.0685
197.35,1.53,-0.0674,-0.0696,-0.0656
197.4,1.53,-0.0669,-0.07,-0.0658
197.45,1.525,-0.0688,-0.0698,-0.0677
197.5,1.53,-0.0678,-0.069,-0.0668
197.55,1.53,-0.0682,-0.0687,-0.0664
197.6,1.53,-0.0678,-0.0687,-0.066
197.65,1.53,-0.068,-0.0688,-0.067
197.7,1.53,-0.068,-0.0683,-0.0672
197.75,1.53,-0.0688,-0.0687,-0.0666
197.8,1.525,-0.0682,-0.0683,-0.0674
197.85,1.53,-0.0672,-0.0694,-0.067
197.9,1.53,-0.0688,-0.0687,-0.0658
197.95,1.53,-0.068,-0.0696,-0.0658
198,1.535,-0.067,-0.069,-0.0666
198.05,1.53,-0.0688,-0.0704,-0.0672
198.1,1.53,-0.0678,-0.0687,-0.0687
198.15,1.525,-0.0663,-0.0694,-0.0676
198.2,1.525,-0.0684,-0.0702,-0.0672
198.25,1.53,-0.0686,-0.0694,-0.0689
198.3,1.53,-0.0674,-0.0698,-0.0683
198.35,1.525,-0.068,-0.0698,-0.0683
198.4,1.525,-0.0682,-0.069,-0.0664
198.45,1.53,-0.0686,-0.07,-0.0681
198.5,1.53,-0.0696,-0.0683,-0.066
198.55,1.525,-0.0692,-0.0702,-0.0683
198.6,1.53,-0.0692,-0.0696,-0.0681
198.65,1.53,-0.0686,-0.0702,-0.0672
198.7,1.53,-0.068,-0.0694,-0.0691
198.75,1.53,-0.0676,-0.0698,-0.0691
198.8,1.525,-0.0684,-0.0687,-0.0699
198.85,1.53,-0.0692,-0.0692,-0.0668
198.9,1.53,-0.0676,-0.0696,-0.0662
198.95,1.525,-0.068,-0.0704,-0.0662
199,1.53,-0.068,-0.0683,-0.0683
199.05,1.525,-0.068,-0.0702,-0.0679
199.1,1.53,-0.0686,-0.07,-0.0668
199.15,1.525,-0.069,-0.0694,-0.0677
199.2,1.53,-0.0676,-0.0692,-0.0676
199.25,1.535,-0.069,-0.0698,-0.0683
199.3,1.535,-0.0674,-0.07,-0.067
199.35,1.535,-0.0692,-0.0694,-0.0658
199.4,1.535,-0.0665,-0.0694,-0.0683
199.45,1.535,-0.0696,-0.0688,-0.0666
199.5,1.541,-0.069,-0.0704,-0.0676
199.55,1.541,-0.0686,-0.0687,-0.0691
199.6,1.541,-0.0696,-0.0698,-0.0689
199.65,1.541,-0.0682,-0.07,-0.0683
199.7,1.541,-0.0684,-0.0702,-0.0677
199.75,1.535,-0.0676,-0.0688,-0.067
199.8,1.541,-0.0682,-0.0702,-0.0677
199.85,1.541,-0.0672,-0.0696,-0.0676
199.9,1.541,-0.0688,-0.071,-0.0691
199.95,1.541,-0.0678,-0.071,-0.0693
200,1.541,-0.0692,-0.071,-0.0683
200.05,1.541,-0.0686,-0.0698,-0.0668
200.1,1.541,-0.0686,-0.069,-0.0681
200.15,1.541,-0.0692,-0.0704,-0.0672
200.2,1.541,-0.0703,-0.069,-0.0677
200.25,1.541,-0.0682,-0.0702,-0.0691
200.3,1.541,-0.069,-0.0702,-0.0679
200.35,1.541,-0.0686,-0.0687,-0.0683
200.4,1.541,-0.068,-0.0694,-0.0695
200.45,1.541,-0.0678,-0.0714,-0.0677
200.5,1.535,-0.069,-0.0708,-0.0699
200.55,1.541,-0.068,-0.0698,-0.0687
200.6,1.541,-0.068,-0.071,-0.0687
200.65,1.541,-0.0696,-0.0683,-0.0666
200.7,1.541,-0.0688,-0.0679,-0.0687
200.75,1.541,-0.068,-0.0694,-0.0685
200.8,1.541,-0.068,-0.0694,-0.0699
200.85,1.541,-0.0696,-0.0679,-0.0693
200.9,1.541,-0.07,-0.069,-0.0672
200.95,1.541,-0.0694,-0.0685,-0.0681
201,1.541,-0.0674,-0.0694,-0.0683
201.05,1.541,-0.0702,-0.0683,-0.0674
201.1,1.541,-0.0676,-0.0694,-0.0693
201.15,1.541,-0.0682,-0.0708,-0.0697
201.2,1.541,-0.0686,-0.0687,-0.0701
201.25,1.545,-0.07,-0.0692,-0.0685
201.3,1.545,-0.0698,-0.0688,-0.0691
201.35,1.545,-0.0692,-0.0706,-0.0695
201.4,1.545,-0.069,-0.0694,-0.0677
201.45,1.545,-0.0698,-0.0702,-0.0683
201.5,1.545,-0.0686,-0.0692,-0.0681
201.55,1.545,-0.069,-0.0704,-0.0687
201.6,1.545,-0.0694,-0.0694,-0.0681
201.65,1.545,-0.069,-0.069,-0.0687
201.7,1.545,-0.0698,-0.0698,-0.0697
201.75,1.545,-0.0692,-0.0685,-0.0687
201.8,1.545,-0.0694,-0.069,-0.0679
201.85,1.545,-0.0703,-0.071,-0.0695
201.9,1.545,-0.0696,-0.0694,-0.0697
201.95,1.545,-0.0692,-0.0687,-0.0681
202,1.551,-0.0705,-0.0685,-0.0687
202.05,1.551,-0.0694,-0.0694,-0.0693
202.1,1.545,-0.0688,-0.0692,-0.0697
202.15,1.551,-0.0702,-0.0698,-0.0689
202.2,1.551,-0.0703,-0.0708,-0.0677
202.25,1.545,-0.0688,-0.0694,-0.0672
202.3,1.545,-0.0703,-0.0679,-0.0676
202.35,1.545,-0.0696,-0.0696,-0.0683
202.4,1.545,-0.0702,-0.0692,-0.0683
202.45,1.551,-0.0703,-0.071,-0.0693
202.5,1.551,-0.068,-0.0704,-0.0679
202.55,1.545,-0.069,-0.0692,-0.0683
202.6,1.551,-0.0692,-0.07,-0.0681
202.65,1.551,-0.0686,-0.0702,-0.0691
202.7,1.551,-0.0702,-0.0692,-0.0677
202.75,1.545,-0.0696,-0.0706,-0.0709
202.8,1.545,-0.069,-0.0694,-0.0683
202.85,1.545,-0.069,-0.0718,-0.0697
202.9,1.545,-0.07,-0.0702,-0.0685
202.95,1.545,-0.0698,-0.0694,-0.0689
203,1.545,-0.0692,-0.0708,-0.0683
203.05,1.551,-0.069,-0.0704,-0.0668
203.1,1.545,-0.0702,-0.0681,-0.0681
203.15,1.551,-0.0702,-0.0696,-0.0705
203.2,1.551,-0.0703,-0.0679,-0.0687
203.25,1.551,-0.0705,-0.0694,-0.0683
203.3,1.556,-0.0688,-0.0714,-0.0703
203.35,1.556,-0.0698,-0.0692,-0.0705
203.4,1.561,-0.0698,-0.0696,-0.0679
203.45,1.561,-0.0698,-0.071,-0.0689
203.5,1.556,-0.0694,-0.0702,-0.0695
203.55,1.556,-0.0715,-0.0712,-0.0687
203.6,1.556,-0.0696,-0.0725,-0.0681
203.65,1.561,-0.0707,-0.0704,-0.0693
203.7,1.556,-0.0703,-0.0694,-0.0683
203.75,1.556,-0.0696,-0.0718,-0.0672
203.8,1.556,-0.0705,-0.0698,-0.0674
203.85,1.561,-0.0698,-0.0702,-0.0681
203.9,1.556,-0.0698,-0.0712,-0.0691
203.95,1.561,-0.0705,-0.0696,-0.0677
204,1.556,-0.0692,-0.0694,-0.0666
204.05,1.556,-0.0688,-0.0702,-0.0699
204.1,1.561,-0.0688,-0.0727,-0.0691
204.15,1.561,-0.0696,-0.0712,-0.0683
204.2,1.556,-0.0694,-0.07,-0.0689
204.25,1.556,-0.0707,-0.0694,-0.0703
204.3,1.561,-0.0694,-0.0702,-0.0691
204.35,1.556,-0.0692,-0.0702,-0.0681
204.4,1.556,-0.0698,-0.0704,-0.0683
204.45,1.561,-0.069,-0.0683,-0.0697
204.5,1.561,-0.0684,-0.0694,-0.0691
204.55,1.561,-0.0686,-0.0685,-0.0699
204.6,1.561,-0.0688,-0.0694,-0.0697
204.65,1.561,-0.0696,-0.0696,-0.0693
204.7,1.556,-0.0711,-0.0696,-0.0676
204.75,1.561,-0.0703,-0.0704,-0.0685
204.8,1.556,-0.0696,-0.0716,-0.0687
204.85,1.556,-0.0713,-0.0706,-0.0676
204.9,1.561,-0.0678,-0.0712,-0.0679
204.95,1.561,-0.0698,-0.0702,-0.0689
205,1.561,-0.0713,-0.071,-0.0685
205.05,1.561,-0.07,-0.0712,-0.0709
205.1,1.567,-0.0705,-0.071,-0.0697
205.15,1.567,-0.07,-0.0698,-0.0705
205.2,1.567,-0.0705,-0.0712,-0.0697
205.25,1.567,-0.0717,-0.0704,-0.0701
205.3,1.567,-0.0711,-0.0716,-0.0691
205.35,1.561,-0.0694,-0.0704,-0.0701
205.4,1.567,-0.0698,-0.0704,-0.0701
205.45,1.567,-0.0702,-0.0704,-0.0705
205.5,1.572,-0.069,-0.072,-0.0687
205.55,1.567,-0.0711,-0.0722,-0.0683
205.6,1.567,-0.0702,-0.0724,-0.0689
205.65,1.567,-0.0703,-0.0712,-0.0672
205.7,1.567,-0.0702,-0.0722,-0.0691
205.75,1.567,-0.0707,-0.072,-0.0681
205.8,1.567,-0.0702,-0.071,-0.0699
205.85,1.567,-0.0703,-0.0712,-0.0697
205.9,1.567,-0.0688,-0.071,-0.0697
205.95,1.567,-0.0688,-0.0714,-0.0683
206,1.567,-0.0702,-0.0722,-0.0687
206.05,1.567,-0.0713,-0.0696,-0.0683
206.1,1.567,-0.0703,-0.0698,-0.0676
206.15,1.567,-0.0694,-0.0702,-0.0691
206.2,1.567,-0.0711,-0.0696,-0.0687
206.25,1.567,-0.07,-0.0714,-0.0699
206.3,1.567,-0.0698,-0.0694,-0.0685
206.35,1.567,-0.0705,-0.072,-0.0712
206.4,1.572,-0.0692,-0.072,-0.0683
206.45,1.577,-0.0702,-0.071,-0.0695
206.5,1.577,-0.0696,-0.0702,-0.0683
206.55,1.577,-0.0698,-0.0714,-0.0691
206.6,1.577,-0.0698,-0.0722,-0.0687
206.65,1.583,-0.0703,-0.0708,-0.0703
206.7,1.577,-0.0698,-0.072,-0.0699
206.75,1.577,-0.0703,-0.072,-0.0691
206.8,1.583,-0.0715,-0.0712,-0.0689
206.85,1.577,-0.0698,-0.0731,-0.0689
206.9,1.577,-0.0713,-0.0694,-0.0681
206.95,1.577,-0.0707,-0.072,-0.0676
207,1.577,-0.0717,-0.072,-0.0689
207.05,1.583,-0.0705,-0.0718,-0.0697
207.1,1.577,-0.0711,-0.0725,-0.0705
207.15,1.577,-0.0698,-0.0714,-0.0697
207.2,1.577,-0.0698,-0.071,-0.0687
207.25,1.577,-0.0703,-0.0712,-0.0697
207.3,1.577,-0.0719,-0.0714,-0.0695
207.35,1.577,-0.0711,-0.07,-0.0701
207.4,1.577,-0.0702,-0.072,-0.0703
207.45,1.577,-0.0723,-0.0729,-0.0701
207.5,1.577,-0.0703,-0.0716,-0.0703
207.55,1.577,-0.0702,-0.0724,-0.0697
207.6,1.583,-0.0727,-0.0712,-0.0691
207.65,1.577,-0.0711,-0.072,-0.0691
207.7,1.577,-0.0703,-0.0702,-0.0683
207.75,1.577,-0.07,-0.0725,-0.0703
207.8,1.577,-0.0723,-0.0696,-0.0672
207.85,1.577,-0.0703,-0.0714,-0.0697
207.9,1.577,-0.0709,-0.0704,-0.0705
207.95,1.577,-0.0696,-0.0725,-0.0687
208,1.577,-0.0709,-0.072,-0.0701
208.05,1.577,-0.0715,-0.072,-0.0703
208.1,1.577,-0.0709,-0.0708,-0.0691
208.15,1.577,-0.0721,-0.0725,-0.0705
208.2,1.583,-0.0725,-0.0716,-0.0691
208.25,1.583,-0.0705,-0.072,-0.0693
208.3,1.583,-0.0719,-0.0714,-0.0707
208.35,1.588,-0.0713,-0.0708,-0.0705
208.4,1.583,-0.0707,-0.0708,-0.0699
208.45,1.588,-0.0709,-0.0698,-0.0689
208.5,1.583,-0.0707,-0.0706,-0.0705
208.55,1.588,-0.0711,-0.071,-0.0716
208.6,1.588,-0.0727,-0.072,-0.0714
208.65,1.588,-0.0702,-0.0706,-0.0695
208.7,1.583,-0.0725,-0.0702,-0.0703
208.75,1.588,-0.0721,-0.0714,-0.0705
208.8,1.588,-0.0703,-0.0727,-0.0699
208.85,1.588,-0.0719,-0.0716,-0.0705
208.9,1.588,-0.0711,-0.0735,-0.0711
208.95,1.583,-0.0725,-0.0718,-0.0707
209,1.588,-0.0713,-0.072,-0.0697
209.05,1.588,-0.0711,-0.0716,-0.0687
209.1,1.588,-0.0705,-0.0727,-0.0703
209.15,1.588,-0.0719,-0.072,-0.0687
209.2,1.588,-0.0721,-0.0735,-0.0691
209.25,1.588,-0.0717,-0.0718,-0.0695
209.3,1.588,-0.0709,-0.0716,-0.0709
209.35,1.588,-0.0725,-0.072,-0.0714
209.4,1.588,-0.0707,-0.0731,-0.0714
209.45,1.588,-0.0707,-0.0694,-0.0707
209.5,1.588,-0.0711,-0.0714,-0.0695
209.55,1.588,-0.0707,-0.0724,-0.0709
209.6,1.588,-0.0711,-0.071,-0.072
209.65,1.588,-0.0727,-0.0714,-0.0703
209.7,1.588,-0.0717,-0.0724,-0.0707
209.75,1.588,-0.0727,-0.0722,-0.0689
209.8,1.588,-0.0702,-0.0733,-0.0709
209.85,1.583,-0.0711,-0.0716,-0.0693
209.9,1.588,-0.0707,-0.0722,-0.0707
209.95,1.588,-0.0717,-0.0702,-0.0709
210,1.588,-0.0703,-0.0731,-0.0683
210.05,1.588,-0.0721,-0.0724,-0.0693
210.1,1.588,-0.0721,-0.0718,-0.0703
210.15,1.588,-0.0721,-0.072,-0.0687
210.2,1.588,-0.0702,-0.0729,-0.0712
210.25,1.588,-0.0713,-0.0722,-0.0714
210.3,1.593,-0.0709,-0.0727,-0.0722
210.35,1.598,-0.0707,-0.0729,-0.0724
210.4,1.593,-0.0703,-0.072,-0.0707
210.45,1.593,-0.0721,-0.0735,-0.0736
210.5,1.598,-0.0721,-0.0722,-0.0718
210.55,1.598,-0.0729,-0.0722,-0.0697
210.6,1.593,-0.0721,-0.0725,-0.0711
210.65,1.598,-0.0723,-0.0731,-0.0705
210.7,1.598,-0.0705,-0.0724,-0.072
210.75,1.598,-0.0719,-0.0727,-0.072
210.8,1.598,-0.0715,-0.071,-0.0703
210.85,1.598,-0.0703,-0.0733,-0.0691
210.9,1.598,-0.0725,-0.0714,-0.0712
210.95,1.598,-0.07,-0.072,-0.0707
211,1.603,-0.0727,-0.0724,-0.0707
211.05,1.598,-0.0727,-0.0724,-0.0701
211.1,1.598,-0.0713,-0.0714,-0.0722
211.15,1.598,-0.0711,-0.0718,-0.0707
211.2,1.598,-0.0725,-0.0722,-0.0707
211.25,1.603,-0.0721,-0.0727,-0.0714
211.3,1.609,-0.0719,-0.0733,-0.0703
211.35,1.609,-0.0711,-0.072,-0.0705
211.4,1.609,-0.0711,-0.0733,-0.072
211.45,1.609,-0.0725,-0.0731,-0.0711
211.5,1.609,-0.0723,-0.0727,-0.0697
211.55,1.609,-0.0713,-0.0718,-0.0705
211.6,1.609,-0.0723,-0.072,-0.0722
211.65,1.609,-0.0725,-0.0735,-0.0703
211.7,1.609,-0.0721,-0.0727,-0.0689
211.75,1.609,-0.0715,-0.0733,-0.0718
211.8,1.609,-0.0711,-0.0741,-0.0697
211.85,1.609,-0.0719,-0.0724,-0.0709
211.9,1.609,-0.0715,-0.0731,-0.0697
211.95,1.609,-0.0733,-0.0735,-0.0691
212,1.609,-0.0717,-0.0718,-0.0701
212.05,1.614,-0.0721,-0.072,-0.0714
212.1,1.609,-0.0731,-0.0727,-0.073
212.15,1.609,-0.0729,-0.0745,-0.0711
212.2,1.609,-0.0719,-0.0727,-0.0718
212.25,1.609,-0.0723,-0.0716,-0.0709
212.3,1.609,-0.0727,-0.0724,-0.0712
212.35,1.609,-0.0723,-0.0745,-0.0707
212.4,1.609,-0.0717,-0.072,-0.0709
212.45,1.609,-0.0731,-0.0724,-0.0707
212.5,1.609,-0.0729,-0.0727,-0.0722
212.55,1.609,-0.0725,-0.0733,-0.072
212.6,1.609,-0.0715,-0.0733,-0.0728
212.65,1.609,-0.0727,-0.0731,-0.0722
212.7,1.609,-0.0731,-0.0733,-0.0707
212.75,1.609,-0.0733,-0.0731,-0.0711
212.8,1.609,-0.0713,-0.0741,-0.0714
212.85,1.609,-0.0723,-0.0722,-0.0722
212.9,1.609,-0.0734,-0.0733,-0.0714
212.95,1.609,-0.0711,-0.0725,-0.0724
213,1.609,-0.0729,-0.0722,-0.072
213.05,1.609,-0.0723,-0.0712,-0.072
213.1,1.609,-0.0717,-0.0727,-0.0712
213.15,1.609,-0.0713,-0.072,-0.0736
213.2,1.609,-0.0723,-0.0725,-0.0728
213.25,1.609,-0.0721,-0.071,-0.0707
213.3,1.609,-0.0738,-0.0733,-0.0703
213.35,1.614,-0.0725,-0.0733,-0.0726
213.4,1.619,-0.0709,-0.0729,-0.0709
213.45,1.619,-0.0717,-0.071,-0.0714
213.5,1.619,-0.0727,-0.0731,-0.0738
213.55,1.619,-0.0744,-0.072,-0.0726
213.6,1.619,-0.0713,-0.0731,-0.0728
213.65,1.614,-0.0729,-0.0741,-0.0726
213.7,1.614,-0.0731,-0.0727,-0.0712
213.75,1.614,-0.0729,-0.0741,-0.0711
213.8,1.614,-0.074,-0.0739,-0.072
213.85,1.619,-0.0729,-0.072,-0.0728
213.9,1.614,-0.0725,-0.0729,-0.072
213.95,1.614,-0.0719,-0.0733,-0.072
214,1.614,-0.0738,-0.0729,-0.0718
214.05,1.614,-0.0729,-0.0722,-0.0724
214.1,1.619,-0.0738,-0.0722,-0.0722
214.15,1.619,-0.0721,-0.0729,-0.0712
214.2,1.619,-0.0738,-0.0735,-0.072
214.25,1.619,-0.0711,-0.0733,-0.0736
214.3,1.614,-0.0713,-0.0716,-0.0714
214.35,1.619,-0.0719,-0.0749,-0.0724
214.4,1.625,-0.0717,-0.0724,-0.0742
214.45,1.619,-0.0723,-0.0751,-0.0718
214.5,1.625,-0.0727,-0.0739,-0.0722
214.55,1.625,-0.0738,-0.0725,-0.0714
214.6,1.625,-0.0738,-0.0733,-0.0724
214.65,1.625,-0.0721,-0.0737,-0.0736
214.7,1.63,-0.0729,-0.0722,-0.0738
214.75,1.625,-0.0727,-0.0731,-0.0738
214.8,1.625,-0.0721,-0.0747,-0.0726
214.85,1.63,-0.0713,-0.0735,-0.0722
214.9,1.625,-0.0733,-0.0737,-0.0716
214.95,1.63,-0.0729,-0.0751,-0.072
215,1.625,-0.0733,-0.0727,-0.0712
215.05,1.625,-0.0742,-0.0729,-0.0734
215.1,1.625,-0.0711,-0.0729,-0.0726
215.15,1.625,-0.0725,-0.0725,-0.0744
215.2,1.625,-0.0729,-0.0739,-0.072
215.25,1.625,-0.0727,-0.0743,-0.0738
215.3,1.625,-0.0711,-0.0733,-0.0728
215.35,1.63,-0.0715,-0.0749,-0.0716
215.4,1.625,-0.0727,-0.0729,-0.0726
215.45,1.63,-0.0717,-0.0741,-0.0734
215.5,1.63,-0.0723,-0.0743,-0.0724
215.55,1.63,-0.0721,-0.0733,-0.0726
215.6,1.63,-0.0746,-0.0739,-0.073
215.65,1.63,-0.0729,-0.0737,-0.073
215.7,1.63,-0.0715,-0.0735,-0.0724
215.75,1.63,-0.0746,-0.0724,-0.073
215.8,1.63,-0.0738,-0.0731,-0.0734
215.85,1.625,-0.075,-0.0727,-0.072
215.9,1.625,-0.0742,-0.0727,-0.0728
215.95,1.625,-0.0733,-0.0737,-0.0734
216,1.625,-0.0729,-0.0758,-0.0736
216.05,1.63,-0.0736,-0.0727,-0.073
216.1,1.63,-0.0734,-0.0725,-0.0728
216.15,1.63,-0.0742,-0.0739,-0.0718
216.2,1.635,-0.074,-0.0741,-0.0734
216.25,1.635,-0.0738,-0.0751,-0.074
216.3,1.635,-0.0748,-0.0741,-0.0738
216.35,1.635,-0.0729,-0.0737,-0.0745
216.4,1.635,-0.0746,-0.0739,-0.072
216.45,1.635,-0.0736,-0.0725,-0.0724
216.5,1.635,-0.0742,-0.0737,-0.0707
216.55,1.635,-0.0744,-0.0725,-0.0734
216.6,1.64,-0.0727,-0.0725,-0.0718
216.65,1.635,-0.0744,-0.0731,-0.0736
216.7,1.635,-0.076,-0.0725,-0.0728
216.75,1.635,-0.0766,-0.0737,-0.0728
216.8,1.635,-0.0725,-0.0722,-0.0734
216.85,1.635,-0.0758,-0.0725,-0.072
216.9,1.635,-0.0742,-0.0741,-0.0747
216.95,1.635,-0.074,-0.0714,-0.073
217,1.635,-0.0748,-0.0722,-0.0744
217.05,1.635,-0.075,-0.0727,-0.0736
217.1,1.635,-0.0746,-0.0725,-0.0751
217.15,1.635,-0.0742,-0.0747,-0.0734
217.2,1.635,-0.0748,-0.0735,-0.0745
217.25,1.635,-0.0742,-0.0737,-0.072
217.3,1.635,-0.0721,-0.0739,-0.0745
217.35,1.64,-0.0746,-0.0733,-0.0728
217.4,1.64,-0.0729,-0.0743,-0.0732
217.45,1.64,-0.0748,-0.0741,-0.0744
217.5,1.645,-0.0752,-0.0739,-0.0738
217.55,1.645,-0.0744,-0.0756,-0.0734
217.6,1.645,-0.0738,-0.0741,-0.0738
217.65,1.645,-0.0742,-0.0743,-0.0745
217.7,1.651,-0.0746,-0.0737,-0.0734
217.75,1.645,-0.0733,-0.0739,-0.0728
217.8,1.645,-0.0754,-0.0743,-0.0738
217.85,1.645,-0.075,-0.0727,-0.073
217.9,1.651,-0.0746,-0.0739,-0.0738
217.95,1.645,-0.0744,-0.0753,-0.073
218,1.645,-0.0729,-0.0747,-0.0747
218.05,1.645,-0.0744,-0.0733,-0.0744
218.1,1.645,-0.0733,-0.0751,-0.074
218.15,1.645,-0.0738,-0.0751,-0.0738
218.2,1.645,-0.0742,-0.0733,-0.0742
218.25,1.651,-0.0752,-0.0725,-0.0744
218.3,1.645,-0.0746,-0.0745,-0.0724
218.35,1.645,-0.0721,-0.0741,-0.0736
218.4,1.651,-0.0742,-0.0724,-0.0722
218.45,1.645,-0.0742,-0.0737,-0.0736
218.5,1.651,-0.0729,-0.0735,-0.0734
218.55,1.645,-0.0744,-0.0735,-0.0736
218.6,1.645,-0.0748,-0.0737,-0.0734
218.65,1.645,-0.0731,-0.0733,-0.073
218.7,1.645,-0.0748,-0.0751,-0.073
218.75,1.645,-0.0742,-0.0749,-0.0722
218.8,1.645,-0.0744,-0.0753,-0.0724
218.85,1.651,-0.0742,-0.0747,-0.0734
218.9,1.645,-0.0742,-0.0749,-0.073
218.95,1.651,-0.0734,-0.0733,-0.073
219,1.651,-0.0742,-0.0747,-0.0738
219.05,1.656,-0.0748,-0.0743,-0.0726
219.1,1.651,-0.0756,-0.0739,-0.0726
219.15,1.656,-0.074,-0.0747,-0.0738
219.2,1.656,-0.0723,-0.0749,-0.0751
219.25,1.656,-0.075,-0.076,-0.0734
219.3,1.656,-0.0748,-0.0753,-0.0745
219.35,1.656,-0.0742,-0.0747,-0.0745
219.4,1.651,-0.075,-0.0768,-0.074
219.45,1.651,-0.0742,-0.0743,-0.0736
219.5,1.651,-0.0742,-0.0745,-0.0744
219.55,1.656,-0.075,-0.0745,-0.0711
219.6,1.656,-0.0742,-0.0729,-0.0759
219.65,1.656,-0.0733,-0.0737,-0.0734
219.7,1.656,-0.0748,-0.0762,-0.074
219.75,1.661,-0.0748,-0.0755,-0.0734
219.8,1.661,-0.0762,-0.0743,-0.0726
219.85,1.661,-0.075,-0.0749,-0.0744
219.9,1.661,-0.0742,-0.0745,-0.0714
219.95,1.656,-0.076,-0.0753,-0.073
220,1.661,-0.0756,-0.076,-0.0714
220.05,1.661,-0.0752,-0.0747,-0.0745
220.1,1.661,-0.0742,-0.0729,-0.0738
220.15,1.656,-0.0756,-0.0745,-0.0712
220.2,1.656,-0.076,-0.0747,-0.0728
220.25,1.661,-0.0754,-0.0741,-0.0722
220.3,1.656,-0.0744,-0.0753,-0.072
220.35,1.661,-0.0758,-0.0745,-0.0724
220.4,1.661,-0.0756,-0.0755,-0.0724
220.45,1.661,-0.075,-0.0755,-0.0734
220.5,1.661,-0.0748,-0.0772,-0.0724
220.55,1.661,-0.0766,-0.0766,-0.0734
220.6,1.667,-0.0754,-0.0749,-0.0751
220.65,1.667,-0.0754,-0.0749,-0.0738
220.7,1.667,-0.0762,-0.0756,-0.0718
220.75,1.667,-0.0767,-0.0741,-0.0712
220.8,1.667,-0.075,-0.0764,-0.0738
220.85,1.672,-0.0766,-0.0764,-0.0744
220.9,1.672,-0.0742,-0.0764,-0.0734
220.95,1.667,-0.0771,-0.076,-0.0724
221,1.667,-0.0766,-0.0762,-0.0738
221.05,1.667,-0.0752,-0.0751,-0.074
221.1,1.672,-0.075,-0.0764,-0.0738
221.15,1.672,-0.0738,-0.076,-0.073
221.2,1.672,-0.076,-0.0758,-0.0705
221.25,1.667,-0.0738,-0.0758,-0.073
221.3,1.667,-0.075,-0.0745,-0.0728
221.35,1.667,-0.0734,-0.0755,-0.074
221.4,1.667,-0.0752,-0.0753,-0.073
221.45,1.667,-0.0766,-0.0743,-0.0711
221.5,1.672,-0.0748,-0.0758,-0.0722
221.55,1.667,-0.0758,-0.0739,-0.072
221.6,1.672,-0.0754,-0.0745,-0.0714
221.65,1.667,-0.0758,-0.0743,-0.0736
221.7,1.672,-0.0738,-0.0743,-0.0742
221.75,1.672,-0.075,-0.0743,-0.0724
221.8,1.667,-0.075,-0.0741,-0.0738
221.85,1.667,-0.0762,-0.0739,-0.0738
221.9,1.672,-0.0746,-0.0753,-0.0738
221.95,1.667,-0.0754,-0.0755,-0.0722
222,1.667,-0.0748,-0.0727,-0.072
222.05,1.667,-0.0742,-0.0756,-0.0742
222.1,1.672,-0.075,-0.0751,-0.0728
222.15,1.667,-0.076,-0.0741,-0.0736
222.2,1.672,-0.0731,-0.0762,-0.0745
222.25,1.672,-0.076,-0.0743,-0.074
222.3,1.672,-0.0767,-0.0743,-0.0724
222.35,1.677,-0.0766,-0.0756,-0.0732
222.4,1.677,-0.0764,-0.0756,-0.0745
222.45,1.672,-0.075,-0.076,-0.0736
222.5,1.672,-0.0752,-0.0751,-0.0728
222.55,1.677,-0.076,-0.0751,-0.0738
222.6,1.672,-0.076,-0.077,-0.0745
222.65,1.677,-0.076,-0.0764,-0.0738
222.7,1.672,-0.076,-0.0774,-0.0736
222.75,1.677,-0.0764,-0.0758,-0.0734
222.8,1.672,-0.0767,-0.076,-0.0744
222.85,1.672,-0.0756,-0.0768,-0.074
222.9,1.672,-0.0756,-0.0747,-0.074
222.95,1.672,-0.0764,-0.0755,-0.0738
223,1.672,-0.0766,-0.076,-0.0759
223.05,1.677,-0.0764,-0.0749,-0.0734
223.1,1.677,-0.0756,-0.0751,-0.0722
223.15,1.672,-0.0766,-0.0762,-0.074
223.2,1.677,-0.0766,-0.0762,-0.0728
223.25,1.677,-0.0758,-0.0755,-0.0747
223.3,1.682,-0.0756,-0.076,-0.0738
223.35,1.682,-0.0764,-0.0751,-0.0749
223.4,1.688,-0.0764,-0.0753,-0.0745
223.45,1.688,-0.0766,-0.0755,-0.0738
223.5,1.688,-0.0752,-0.076,-0.0744
223.55,1.688,-0.0758,-0.0758,-0.0745
223.6,1.688,-0.0777,-0.0756,-0.0761
223.65,1.688,-0.076,-0.0766,-0.074
223.7,1.688,-0.0766,-0.0756,-0.0759
223.75,1.688,-0.0764,-0.0764,-0.0747
223.8,1.682,-0.0742,-0.0755,-0.0749
223.85,1.688,-0.0748,-0.0756,-0.0728
223.9,1.688,-0.0764,-0.0758,-0.0765
223.95,1.688,-0.0764,-0.0756,-0.0761
224,1.688,-0.0766,-0.0755,-0.0728
224.05,1.688,-0.0744,-0.0758,-0.0747
224.1,1.688,-0.0754,-0.0755,-0.0749
224.15,1.688,-0.0762,-0.0749,-0.0728
224.2,1.688,-0.0762,-0.0751,-0.0745
224.25,1.688,-0.0773,-0.0766,-0.0749
224.3,1.688,-0.0767,-0.0758,-0.0747
224.35,1.688,-0.0762,-0.0756,-0.0763
224.4,1.688,-0.0766,-0.0758,-0.0759
224.45,1.682,-0.0744,-0.0774,-0.0747
224.5,1.688,-0.075,-0.0751,-0.0763
224.55,1.688,-0.0748,-0.077,-0.0738
224.6,1.688,-0.076,-0.0751,-0.0745
224.65,1.688,-0.0742,-0.0758,-0.0759
224.7,1.688,-0.0764,-0.0774,-0.0745
224.75,1.682,-0.0756,-0.077,-0.0765
224.8,1.688,-0.0733,-0.0766,-0.0734
224.85,1.688,-0.0744,-0.0766,-0.0747
224.9,1.688,-0.0754,-0.0751,-0.0736
224.95,1.688,-0.0742,-0.076,-0.0742
225,1.688,-0.0738,-0.0766,-0.0738
225.05,1.688,-0.0742,-0.0747,-0.0761
225.1,1.688,-0.0729,-0.0758,-0.0736
225.15,1.688,-0.0752,-0.0762,-0.074
225.2,1.693,-0.0756,-0.0764,-0.0744
225.25,1.693,-0.0758,-0.0764,-0.0747
225.3,1.693,-0.0748,-0.0764,-0.0745
225.35,1.693,-0.0766,-0.076,-0.0751
225.4,1.693,-0.076,-0.0751,-0.0759
225.45,1.693,-0.0754,-0.076,-0.072
225.5,1.693,-0.0748,-0.0772,-0.0745
225.55,1.693,-0.0754,-0.0758,-0.0745
225.6,1.698,-0.0758,-0.0762,-0.0742
225.65,1.693,-0.076,-0.0782,-0.0745
225.7,1.693,-0.0766,-0.0766,-0.0744
225.75,1.698,-0.076,-0.0774,-0.0747
225.8,1.693,-0.0764,-0.0758,-0.0744
225.85,1.698,-0.0764,-0.0776,-0.0759
225.9,1.693,-0.075,-0.0751,-0.0736
225.95,1.693,-0.0756,-0.0751,-0.0734
226,1.698,-0.0766,-0.077,-0.0736
226.05,1.698,-0.076,-0.0778,-0.0734
226.1,1.693,-0.0769,-0.0782,-0.0734
226.15,1.698,-0.0744,-0.0782,-0.0751
226.2,1.693,-0.076,-0.0758,-0.0742
226.25,1.693,-0.075,-0.077,-0.074
226.3,1.698,-0.0762,-0.0755,-0.0747
226.35,1.703,-0.0766,-0.0772,-0.0763
226.4,1.703,-0.0766,-0.0768,-0.0745
226.45,1.709,-0.0764,-0.077,-0.0759
226.5,1.709,-0.0771,-0.0766,-0.0736
226.55,1.703,-0.0767,-0.0751,-0.0749
226.6,1.703,-0.0758,-0.0756,-0.0745
226.65,1.709,-0.0766,-0.076,-0.0749
226.7,1.703,-0.0773,-0.077,-0.0732
226.75,1.709,-0.0775,-0.0762,-0.0751
226.8,1.709,-0.0764,-0.0782,-0.0761
226.85,1.703,-0.0777,-0.0751,-0.0759
226.9,1.709,-0.0781,-0.0766,-0.0763
226.95,1.709,-0.0773,-0.0782,-0.0761
227,1.709,-0.0766,-0.0766,-0.0751
227.05,1.703,-0.0766,-0.0772,-0.0761
227.1,1.703,-0.0764,-0.0772,-0.0761
227.15,1.703,-0.0758,-0.0772,-0.0747
227.2,1.709,-0.0773,-0.0774,-0.0767
227.25,1.714,-0.0762,-0.0776,-0.0769
227.3,1.714,-0.0767,-0.0774,-0.0734
227.35,1.714,-0.0758,-0.0774,-0.0749
227.4,1.714,-0.0766,-0.076,-0.0751
227.45,1.714,-0.0766,-0.0766,-0.0767
227.5,1.714,-0.0773,-0.0772,-0.0744
227.55,1.714,-0.0758,-0.0764,-0.073
227.6,1.714,-0.0767,-0.0776,-0.0767
227.65,1.714,-0.0767,-0.0774,-0.0745
227.7,1.719,-0.0773,-0.0795,-0.0765
227.75,1.714,-0.0773,-0.0774,-0.0761
227.8,1.714,-0.0781,-0.0764,-0.0765
227.85,1.714,-0.0787,-0.0778,-0.074
227.9,1.714,-0.0773,-0.0751,-0.0767
227.95,1.714,-0.0775,-0.0788,-0.0751
228,1.714,-0.0769,-0.0786,-0.0759
228.05,1.714,-0.0773,-0.0764,-0.0765
228.1,1.714,-0.0783,-0.0782,-0.0769
228.15,1.714,-0.0766,-0.0786,-0.0759
228.2,1.714,-0.0779,-0.079,-0.0751
228.25,1.719,-0.0783,-0.0795,-0.0745
228.3,1.719,-0.0783,-0.0784,-0.0751
228.35,1.719,-0.0771,-0.0776,-0.0738
228.4,1.724,-0.0766,-0.0793,-0.0747
228.45,1.724,-0.0781,-0.079,-0.074
228.5,1.73,-0.0787,-0.0776,-0.0769
228.55,1.73,-0.0787,-0.079,-0.0761
228.6,1.724,-0.0769,-0.0766,-0.0765
228.65,1.724,-0.0771,-0.0784,-0.0769
228.7,1.724,-0.0777,-0.079,-0.0771
228.75,1.73,-0.0797,-0.0788,-0.0736
228.8,1.73,-0.0785,-0.0788,-0.078
228.85,1.724,-0.0775,-0.0774,-0.0769
228.9,1.73,-0.0783,-0.0774,-0.0751
228.95,1.724,-0.0789,-0.0786,-0.0759
229,1.73,-0.0789,-0.077,-0.0749
229.05,1.724,-0.0787,-0.0778,-0.0759
229.1,1.73,-0.0779,-0.076,-0.0759
229.15,1.724,-0.0775,-0.0792,-0.0771
229.2,1.724,-0.0775,-0.078,-0.0765
229.25,1.73,-0.0775,-0.0784,-0.0769
229.3,1.724,-0.0783,-0.0772,-0.0765
229.35,1.73,-0.0762,-0.0782,-0.0773
229.4,1.73,-0.0791,-0.0764,-0.0778
229.45,1.735,-0.0775,-0.077,-0.0775
229.5,1.735,-0.0767,-0.078,-0.0782
229.55,1.735,-0.0791,-0.078,-0.0765
229.6,1.735,-0.0779,-0.0782,-0.0767
229.65,1.735,-0.0777,-0.0797,-0.078
229.7,1.735,-0.0789,-0.0795,-0.0763
229.75,1.735,-0.0791,-0.0772,-0.0763
229.8,1.735,-0.0775,-0.0764,-0.0776
229.85,1.735,-0.0767,-0.0778,-0.0778
229.9,1.735,-0.0793,-0.0788,-0.0769
229.95,1.735,-0.0787,-0.0768,-0.0767
230,1.735,-0.0769,-0.0774,-0.0769
230.05,1.735,-0.0791,-0.078,-0.0751
230.1,1.74,-0.0789,-0.0792,-0.0773
230.15,1.74,-0.0797,-0.0788,-0.0786
230.2,1.745,-0.0771,-0.0772,-0.0771
230.25,1.745,-0.0785,-0.0782,-0.079
230.3,1.745,-0.0785,-0.0788,-0.0773
230.35,1.745,-0.0791,-0.0799,-0.0767
230.4,1.745,-0.0779,-0.0774,-0.0786
230.45,1.745,-0.0785,-0.0778,-0.0778
230.5,1.745,-0.0797,-0.0792,-0.0767
230.55,1.745,-0.0789,-0.0799,-0.078
230.6,1.745,-0.0793,-0.0784,-0.0775
230.65,1.745,-0.0789,-0.0766,-0.0773
230.7,1.745,-0.0783,-0.0793,-0.0767
230.75,1.745,-0.0777,-0.0792,-0.0782
230.8,1.751,-0.0785,-0.0803,-0.0771
230.85,1.751,-0.0785,-0.0788,-0.0782
230.9,1.745,-0.0783,-0.0801,-0.0786
230.95,1.751,-0.0773,-0.0786,-0.0782
231,1.751,-0.0779,-0.0784,-0.0786
231.05,1.745,-0.0785,-0.0795,-0.0788
231.1,1.745,-0.0789,-0.0801,-0.0757
231.15,1.751,-0.0785,-0.0788,-0.0776
231.2,1.745,-0.0793,-0.0793,-0.079
231.25,1.745,-0.0779,-0.0782,-0.0767
231.3,1.751,-0.0791,-0.079,-0.0782
231.35,1.751,-0.0791,-0.0782,-0.0776
231.4,1.751,-0.0791,-0.0797,-0.0776
231.45,1.751,-0.0789,-0.078,-0.0778
231.5,1.756,-0.0789,-0.0792,-0.0778
231.55,1.751,-0.0795,-0.0792,-0.0767
231.6,1.756,-0.0785,-0.0784,-0.0751
231.65,1.751,-0.0797,-0.0786,-0.079
231.7,1.756,-0.0789,-0.0801,-0.0776
231.75,1.756,-0.0802,-0.0795,-0.0784
231.8,1.756,-0.0795,-0.0788,-0.079
231.85,1.756,-0.0785,-0.0797,-0.0788
231.9,1.756,-0.0791,-0.0807,-0.079
231.95,1.756,-0.0783,-0.0782,-0.0771
232,1.756,-0.0795,-0.0795,-0.0786
232.05,1.751,-0.0795,-0.0784,-0.0788
232.1,1.756,-0.0791,-0.0786,-0.0771
232.15,1.756,-0.0791,-0.0801,-0.0782
232.2,1.756,-0.0787,-0.078,-0.0775
232.25,1.756,-0.0789,-0.0776,-0.0792
232.3,1.761,-0.0802,-0.079,-0.0782
232.35,1.761,-0.0789,-0.0793,-0.079
232.4,1.761,-0.0795,-0.0797,-0.0788
232.45,1.761,-0.0797,-0.077,-0.0769
232.5,1.761,-0.0793,-0.0782,-0.0771
232.55,1.761,-0.0806,-0.0803,-0.0782
232.6,1.767,-0.0804,-0.079,-0.0786
232.65,1.761,-0.0791,-0.0801,-0.0784
232.7,1.761,-0.0791,-0.0788,-0.0776
232.75,1.761,-0.0804,-0.0782,-0.0784
232.8,1.761,-0.0799,-0.0799,-0.0782
232.85,1.767,-0.0797,-0.0795,-0.0784
232.9,1.772,-0.0787,-0.0797,-0.0782
232.95,1.767,-0.0779,-0.0788,-0.078
233,1.761,-0.0797,-0.077,-0.0784
233.05,1.761,-0.0785,-0.077,-0.0775
233.1,1.767,-0.0789,-0.0817,-0.0778
233.15,1.767,-0.0791,-0.0803,-0.0798
233.2,1.761,-0.0785,-0.0788,-0.0782
233.25,1.767,-0.0783,-0.0784,-0.0782
233.3,1.772,-0.0789,-0.0809,-0.079
233.35,1.772,-0.0795,-0.0807,-0.0788
233.4,1.772,-0.0789,-0.0809,-0.0782
233.45,1.772,-0.0791,-0.0809,-0.0802
233.5,1.777,-0.0785,-0.0788,-0.0802
233.55,1.772,-0.0797,-0.0788,-0.0773
233.6,1.777,-0.081,-0.0788,-0.0778
233.65,1.777,-0.0808,-0.0788,-0.078
233.7,1.777,-0.0797,-0.0799,-0.0804
233.75,1.777,-0.0787,-0.0813,-0.079
233.8,1.772,-0.0812,-0.0782,-0.0786
233.85,1.777,-0.0799,-0.0813,-0.0794
233.9,1.777,-0.0799,-0.0813,-0.0784
233.95,1.777,-0.0789,-0.0813,-0.0792
234,1.777,-0.0783,-0.0801,-0.079
234.05,1.777,-0.0808,-0.0795,-0.0786
234.1,1.777,-0.0804,-0.0786,-0.0804
234.15,1.777,-0.0797,-0.0805,-0.0808
234.2,1.772,-0.0791,-0.0805,-0.0794
234.25,1.772,-0.0791,-0.0799,-0.0767
234.3,1.782,-0.0795,-0.0801,-0.0784
234.35,1.782,-0.08,-0.0803,-0.0788
234.4,1.782,-0.0808,-0.0795,-0.0802
234.45,1.782,-0.081,-0.0826,-0.079
234.5,1.788,-0.08,-0.0803,-0.079
234.55,1.782,-0.08,-0.0811,-0.079
234.6,1.788,-0.0816,-0.0803,-0.0788
234.65,1.788,-0.08,-0.0805,-0.0788
234.7,1.788,-0.0808,-0.0807,-0.0802
234.75,1.788,-0.0791,-0.0805,-0.079
234.8,1.788,-0.0804,-0.0815,-0.079
234.85,1.782,-0.0802,-0.0823,-0.0796
234.9,1.788,-0.0802,-0.0807,-0.079
234.95,1.788,-0.0797,-0.0807,-0.079
235,1.788,-0.0812,-0.0805,-0.081
235.05,1.782,-0.0797,-0.0821,-0.0802
235.1,1.788,-0.0791,-0.0815,-0.0782
235.15,1.777,-0.0802,-0.0797,-0.0784
235.2,1.788,-0.0783,-0.0795,-0.0798
235.25,1.793,-0.0795,-0.0805,-0.0796
235.3,1.788,-0.0812,-0.0809,-0.0802
235.35,1.793,-0.0818,-0.0817,-0.08
235.4,1.793,-0.0799,-0.0809,-0.0802
235.45,1.798,-0.081,-0.0817,-0.0798
235.5,1.793,-0.08,-0.0795,-0.0798
235.55,1.798,-0.08,-0.0821,-0.0796
235.6,1.798,-0.0804,-0.0819,-0.079
235.65,1.798,-0.0816,-0.0834,-0.0798
235.7,1.798,-0.082,-0.0807,-0.08
235.75,1.793,-0.0812,-0.0817,-0.079
235.8,1.793,-0.0804,-0.0805,-0.0813
235.85,1.798,-0.0787,-0.0817,-0.0798
235.9,1.798,-0.081,-0.0819,-0.0811
235.95,1.793,-0.0808,-0.0815,-0.0811
236,1.798,-0.082,-0.0821,-0.0811
236.05,1.798,-0.0804,-0.0811,-0.0813
236.1,1.798,-0.08,-0.0799,-0.0786
236.15,1.798,-0.0804,-0.0815,-0.0784
236.2,1.793,-0.082,-0.0813,-0.08
236.25,1.793,-0.0816,-0.0813,-0.0798
236.3,1.798,-0.081,-0.0817,-0.0806
236.35,1.798,-0.08,-0.0823,-0.0802
236.4,1.798,-0.0814,-0.0809,-0.0798
236.45,1.803,-0.0812,-0.0819,-0.081
236.5,1.798,-0.0806,-0.0807,-0.0806
236.55,1.798,-0.081,-0.0799,-0.0808
236.6,1.803,-0.0797,-0.0821,-0.0813
236.65,1.803,-0.0793,-0.0807,-0.0806
236.7,1.803,-0.08,-0.0807,-0.0808
236.75,1.803,-0.0814,-0.0826,-0.0806
236.8,1.803,-0.0799,-0.0821,-0.079
236.85,1.803,-0.0812,-0.0823,-0.0804
236.9,1.803,-0.082,-0.0803,-0.0786
236.95,1.803,-0.081,-0.0828,-0.0792
237,1.803,-0.0822,-0.0819,-0.08
237.05,1.803,-0.0808,-0.0813,-0.0788
237.1,1.803,-0.0818,-0.0805,-0.0796
237.15,1.803,-0.0814,-0.0826,-0.081
237.2,1.803,-0.0806,-0.0819,-0.0811
237.25,1.803,-0.0804,-0.0823,-0.0792
237.3,1.803,-0.0824,-0.0813,-0.0821
237.35,1.803,-0.082,-0.0811,-0.0806
237.4,1.803,-0.0832,-0.0815,-0.079
237.45,1.803,-0.0814,-0.0801,-0.0819
237.5,1.803,-0.0814,-0.0799,-0.081
237.55,1.803,-0.082,-0.0792,-0.0802
237.6,1.803,-0.0806,-0.0819,-0.0806
237.65,1.803,-0.0808,-0.0813,-0.0802
237.7,1.803,-0.0797,-0.0815,-0.0813
237.75,1.798,-0.0816,-0.0809,-0.0802
237.8,1.803,-0.0816,-0.0813,-0.0806
237.85,1.803,-0.0802,-0.0817,-0.08
237.9,1.803,-0.0802,-0.0819,-0.0804
237.95,1.803,-0.081,-0.0813,-0.0806
238,1.803,-0.0806,-0.0817,-0.0806
238.05,1.803,-0.0818,-0.0817,-0.0823
238.1,1.798,-0.081,-0.0828,-0.0786
238.15,1.803,-0.0816,-0.0828,-0.08
238.2,1.803,-0.0806,-0.0819,-0.08
238.25,1.809,-0.0812,-0.0819,-0.0811
238.3,1.809,-0.0812,-0.0828,-0.081
238.35,1.809,-0.0824,-0.0828,-0.0813
238.4,1.814,-0.0814,-0.0813,-0.08
238.45,1.814,-0.0816,-0.0819,-0.0827
238.5,1.814,-0.082,-0.0823,-0.0802
238.55,1.814,-0.083,-0.0817,-0.0811
238.6,1.814,-0.0812,-0.0834,-0.0811
238.65,1.814,-0.0808,-0.0824,-0.0808
238.7,1.814,-0.0822,-0.0815,-0.0806
238.75,1.814,-0.082,-0.0819,-0.079
238.8,1.814,-0.0822,-0.0826,-0.08
238.85,1.814,-0.0804,-0.0819,-0.0813
238.9,1.814,-0.081,-0.083,-0.0806
238.95,1.814,-0.0816,-0.0817,-0.081
239,1.814,-0.0804,-0.0834,-0.0815
239.05,1.814,-0.0816,-0.0811,-0.0804
239.1,1.814,-0.081,-0.0819,-0.0798
239.15,1.814,-0.0802,-0.0828,-0.0786
239.2,1.814,-0.0828,-0.0828,-0.0815
239.25,1.814,-0.0814,-0.0813,-0.079
239.3,1.814,-0.081,-0.0807,-0.0815
239.35,1.814,-0.0826,-0.0821,-0.0823
239.4,1.819,-0.0812,-0.0826,-0.0813
239.45,1.819,-0.0824,-0.0823,-0.0823
239.5,1.819,-0.0826,-0.0826,-0.0804
239.55,1.819,-0.0828,-0.0826,-0.0821
239.6,1.819,-0.0832,-0.0821,-0.0823
239.65,1.819,-0.083,-0.0828,-0.0804
239.7,1.824,-0.082,-0.0832,-0.08
239.75,1.819,-0.0826,-0.0826,-0.0794
239.8,1.819,-0.0816,-0.0821,-0.0811
239.85,1.819,-0.0841,-0.0821,-0.0819
239.9,1.83,-0.0814,-0.0801,-0.0813
239.95,1.824,-0.0812,-0.0826,-0.0813
240,1.824,-0.0822,-0.0795,-0.0808
240.05,1.824,-0.0812,-0.0819,-0.0798
240.1,1.824,-0.0824,-0.0823,-0.081
240.15,1.824,-0.0828,-0.0819,-0.0815
240.2,1.819,-0.0818,-0.0834,-0.0802
240.25,1.824,-0.0816,-0.0819,-0.0806
240.3,1.83,-0.0832,-0.0828,-0.0808
240.35,1.83,-0.0826,-0.0813,-0.079
240.4,1.83,-0.0826,-0.0811,-0.0815
240.45,1.83,-0.0837,-0.0826,-0.0792
240.5,1.835,-0.0822,-0.0821,-0.081
240.55,1.83,-0.0826,-0.0826,-0.0808
240.6,1.835,-0.0832,-0.0838,-0.0808
240.65,1.835,-0.0832,-0.0817,-0.0821
240.7,1.835,-0.0828,-0.0813,-0.0813
240.75,1.83,-0.0837,-0.0838,-0.0829
240.8,1.835,-0.083,-0.0834,-0.0811
240.85,1.84,-0.0814,-0.0836,-0.0808
240.9,1.835,-0.0818,-0.0828,-0.0811
240.95,1.835,-0.0832,-0.083,-0.0823
241,1.835,-0.0832,-0.0828,-0.0819
241.05,1.835,-0.0826,-0.0832,-0.081
241.1,1.835,-0.0816,-0.0826,-0.0819
241.15,1.835,-0.082,-0.0817,-0.0813
241.2,1.835,-0.0818,-0.0826,-0.0811
241.25,1.835,-0.0822,-0.0836,-0.0813
241.3,1.835,-0.0828,-0.083,-0.0817
241.35,1.835,-0.0822,-0.0832,-0.0806
241.4,1.83,-0.0812,-0.0828,-0.08
241.45,1.835,-0.0814,-0.0834,-0.0823
241.5,1.835,-0.0822,-0.0813,-0.0808
241.55,1.83,-0.0814,-0.0813,-0.0802
241.6,1.835,-0.083,-0.0836,-0.0815
241.65,1.835,-0.0828,-0.0834,-0.08
241.7,1.835,-0.083,-0.0813,-0.0821
241.75,1.835,-0.0841,-0.0819,-0.0823
241.8,1.835,-0.0828,-0.0823,-0.0823
241.85,1.835,-0.0828,-0.0838,-0.0831
241.9,1.835,-0.083,-0.0834,-0.0819
241.95,1.835,-0.0826,-0.0823,-0.0813
242,1.835,-0.0826,-0.0836,-0.0827
242.05,1.835,-0.0824,-0.083,-0.0806
242.1,1.83,-0.0828,-0.0823,-0.0823
242.15,1.84,-0.0837,-0.0832,-0.0821
242.2,1.83,-0.0822,-0.0828,-0.0829
242.25,1.835,-0.0828,-0.0844,-0.0808
242.3,1.835,-0.0832,-0.0821,-0.0798
242.35,1.835,-0.0828,-0.0832,-0.08
242.4,1.835,-0.0828,-0.083,-0.0821
242.45,1.835,-0.0832,-0.0826,-0.0811
242.5,1.83,-0.082,-0.0834,-0.0821
242.55,1.835,-0.0835,-0.0819,-0.0821
242.6,1.835,-0.082,-0.0817,-0.079
242.65,1.84,-0.0822,-0.0828,-0.0813
242.7,1.83,-0.0814,-0.0828,-0.0827
242.75,1.835,-0.083,-0.0823,-0.0821
242.8,1.835,-0.0816,-0.0817,-0.0808
242.85,1.835,-0.0835,-0.0817,-0.08
242.9,1.835,-0.0816,-0.0844,-0.0815
242.95,1.835,-0.0826,-0.0826,-0.0819
243,1.83,-0.0812,-0.0826,-0.0823
243.05,1.835,-0.082,-0.0826,-0.0806
243.1,1.835,-0.0826,-0.0824,-0.0811
243.15,1.835,-0.083,-0.0828,-0.0817
243.2,1.83,-0.0828,-0.0826,-0.0815
243.25,1.83,-0.0828,-0.083,-0.0808
243.3,1.835,-0.0828,-0.0823,-0.0804
243.35,1.835,-0.082,-0.0821,-0.0808
243.4,1.835,-0.0824,-0.0824,-0.081
243.45,1.835,-0.0816,-0.0824,-0.08
243.5,1.835,-0.083,-0.0838,-0.0808
243.55,1.835,-0.083,-0.0821,-0.0817
243.6,1.835,-0.0828,-0.083,-0.0804
243.65,1.835,-0.0826,-0.0834,-0.0813
243.7,1.835,-0.0835,-0.0838,-0.0819
243.75,1.835,-0.0822,-0.0828,-0.0815
243.8,1.835,-0.0843,-0.0828,-0.0813
243.85,1.835,-0.0828,-0.0834,-0.0825
243.9,1.835,-0.0835,-0.0826,-0.0817
243.95,1.835,-0.083,-0.0826,-0.0802
244,1.835,-0.0822,-0.0834,-0.0798
244.05,1.835,-0.0835,-0.083,-0.0827
244.1,1.835,-0.0835,-0.0828,-0.08
244.15,1.83,-0.0822,-0.0803,-0.08
244.2,1.835,-0.0812,-0.0805,-0.0821
244.25,1.835,-0.083,-0.0834,-0.081
244.3,1.835,-0.0822,-0.0817,-0.0811
